t,acc_X,acc_Y,acc_Z,gyr_X,gyr_Y,gyr_Z,mag_X,mag_Y,mag_Z,eul_heading,eul_roll,eul_pitch,quat_w,quat_x,quat_y,quat_z,lia_X,lia_Y,lia_Z,grv_X,grv_Y,grv_Z,temp
0.0,9.54,0.27,-0.01,-0.6875,2.125,-0.5625,-48.0,16.25,-5.5625,349.5625,88.4375,-1.375,0.70752,0.080811,-0.699158,0.06427,-0.25,0.03,-0.1,9.8,0.23,0.09,31
0.010061,9.52,0.28,-0.03,0.25,-0.0625,-0.5625,-48.0,16.25,-5.5625,349.5625,88.4375,-1.375,0.707458,0.080811,-0.699158,0.06427,-0.27,0.04,-0.12,9.8,0.24,0.09,31
0.020122,9.5,0.3,-0.09,0.375,-2.6875,-0.3125,-48.25,16.6875,-5.25,349.4375,88.5,-1.375,0.707214,0.081787,-0.699219,0.065186,-0.3,0.06,-0.18,9.8,0.24,0.08,31
0.030184,9.5,0.3,-0.09,-0.8125,-2.8125,-0.1875,-48.25,16.6875,-5.25,349.4375,88.5,-1.375,0.70697,0.081787,-0.699463,0.065125,-0.33,0.03,-0.24,9.8,0.24,0.07,31
0.040245,9.47,0.3,-0.11,-1.5,-1.8125,0.0625,-48.25,16.6875,-5.25,349.4375,88.5,-1.375,0.706848,0.081726,-0.699646,0.065002,-0.32,0.06,-0.19,9.8,0.24,0.07,31
0.050306,9.54,0.33,-0.01,-2.5,-1.3125,0.125,-48.25,16.6875,-5.25,349.5,88.5,-1.375,0.706726,0.081604,-0.699768,0.064819,-0.26,0.09,-0.08,9.8,0.24,0.07,31
0.060367,9.54,0.31,-0.04,-2.5625,-1.5625,0.4375,-48.25,16.6875,-5.25,349.5,88.5,-1.375,0.706665,0.081482,-0.69989,0.064636,-0.26,0.07,-0.11,9.8,0.24,0.06,31
0.070429,9.54,0.31,-0.04,-2.5625,-1.5625,0.4375,-48.25,16.25,-5.25,349.375,88.5,-1.375,0.70636,0.082397,-0.699951,0.065552,-0.24,0.06,-0.12,9.8,0.24,0.06,31
0.08049,9.56,0.31,-0.06,-2.1875,-2.5,0.75,-48.25,16.25,-5.25,349.375,88.5,-1.375,0.706177,0.082275,-0.700134,0.065552,-0.27,0.07,-0.16,9.8,0.23,0.05,31
0.090551,9.55,0.31,-0.13,-1.125,-2.5,1.0625,-48.25,16.25,-5.25,349.375,88.5625,-1.375,0.705994,0.082153,-0.700378,0.065491,-0.25,0.07,-0.19,9.8,0.23,0.05,31
0.100612,9.6,0.31,-0.04,-0.625,-1.8125,1.375,-48.25,16.25,-5.25,349.375,88.5625,-1.375,0.705872,0.082092,-0.7005,0.065491,-0.19,0.07,-0.09,9.8,0.23,0.05,31
0.110674,9.57,0.27,-0.12,-1.3125,-1.9375,1.5,-48.25,16.25,-5.25,349.375,88.5625,-1.3125,0.70575,0.08197,-0.700684,0.065491,-0.22,0.04,-0.17,9.8,0.23,0.04,31
0.120735,9.57,0.27,-0.12,-1.3125,-1.9375,1.5,-48.0,16.25,-5.25,349.1875,88.5625,-1.3125,0.705444,0.083069,-0.700745,0.066711,-0.17,0.03,-0.18,9.8,0.23,0.04,31
0.130796,9.62,0.26,-0.14,-0.25,-2.5,1.4375,-48.0,16.25,-5.25,349.125,88.625,-1.3125,0.705261,0.083069,-0.700867,0.066772,-0.2,0.04,-0.17,9.8,0.23,0.03,31
0.140857,9.62,0.29,-0.09,-0.6875,-1.5625,0.75,-48.0,16.25,-5.25,349.125,88.625,-1.3125,0.705139,0.083008,-0.700989,0.066772,-0.17,0.06,-0.12,9.8,0.23,0.03,31
0.150918,9.66,0.32,-0.01,-0.5,-3.25,0.6875,-48.0,16.25,-5.25,349.125,88.625,-1.3125,0.704956,0.083008,-0.701233,0.066772,-0.14,0.1,-0.03,9.8,0.22,0.02,31
0.16098,9.66,0.34,-0.02,-0.0625,-5.375,1.0625,-48.0,16.25,-5.25,349.125,88.625,-1.3125,0.70459,0.082947,-0.701538,0.066772,-0.14,0.12,-0.04,9.8,0.22,0.01,31
0.171041,9.61,0.32,-0.12,-0.5,-5.5625,1.25,-48.0,15.875,-4.375,349.125,88.625,-1.3125,0.704224,0.08313,-0.701904,0.067017,-0.19,0.1,-0.13,9.8,0.22,0.0,31
0.181102,9.56,0.35,-0.2,-1.3125,-5.25,1.1875,-48.0,15.875,-4.375,349.125,88.625,-178.625,0.703857,0.083069,-0.702271,0.066895,-0.23,0.13,-0.2,9.8,0.22,0.0,31
0.191163,9.58,0.31,-0.22,-1.0,-5.5,1.1875,-48.0,15.875,-4.375,349.125,88.6875,-178.6875,0.703491,0.083008,-0.702637,0.066833,-0.21,0.08,-0.21,9.8,0.22,-0.01,31
0.201225,9.57,0.36,-0.19,-0.3125,-5.3125,1.0625,-48.0,15.875,-4.375,349.125,88.6875,-178.6875,0.703125,0.083008,-0.703003,0.066833,-0.22,0.13,-0.17,9.8,0.22,-0.02,31
0.211286,9.56,0.35,-0.17,-0.25,-5.1875,1.3125,-48.0,15.875,-4.375,349.125,88.6875,-178.6875,0.70282,0.083008,-0.703369,0.066833,-0.23,0.13,-0.13,9.8,0.22,-0.03,31
0.221347,9.56,0.33,-0.23,-0.375,-4.8125,1.75,-48.25,15.875,-5.5625,348.8125,88.6875,-178.6875,0.702271,0.084717,-0.703491,0.068665,-0.24,0.11,-0.19,9.8,0.22,-0.04,31
0.231408,9.58,0.31,-0.23,-0.25,-4.0625,1.75,-48.25,15.875,-5.5625,348.8125,88.6875,-178.6875,0.701965,0.084717,-0.703796,0.068665,-0.21,0.09,-0.18,9.8,0.21,-0.04,31
0.241469,9.56,0.36,-0.19,0.5,-2.0625,1.9375,-48.25,15.875,-5.5625,348.75,88.6875,-178.6875,0.701782,0.084656,-0.703979,0.068726,-0.23,0.14,-0.14,9.8,0.21,-0.05,31
0.251531,9.62,0.36,-0.17,-0.25,-1.25,1.9375,-48.25,15.875,-5.5625,348.75,88.6875,-178.75,0.70166,0.084595,-0.704102,0.068787,-0.17,0.14,-0.11,9.8,0.21,-0.05,31
0.261592,9.56,0.31,-0.14,-0.375,-1.3125,2.3125,-48.25,15.875,-5.5625,348.75,88.6875,-178.75,0.701599,0.084473,-0.704224,0.068909,-0.23,0.1,-0.08,9.8,0.21,-0.05,31
0.271653,9.56,0.31,-0.14,-1.0625,-2.3125,2.375,-48.25,15.875,-5.5625,348.4375,88.6875,-178.75,0.701233,0.086243,-0.704163,0.070862,-0.22,0.11,-0.09,9.8,0.2,-0.06,31
0.281714,9.57,0.29,-0.24,-1.5625,-2.375,2.4375,-48.25,15.875,-5.5625,348.4375,88.6875,-178.75,0.70105,0.08606,-0.704346,0.070862,-0.22,0.08,-0.17,9.8,0.2,-0.06,31
0.291776,9.57,0.26,-0.27,-2.25,-1.8125,2.1875,-48.25,15.875,-5.5625,348.4375,88.6875,-178.8125,0.700928,0.085815,-0.704529,0.070801,-0.22,0.06,-0.2,9.8,0.2,-0.07,31
0.301837,9.56,0.27,-0.29,-2.625,-0.6875,2.125,-48.25,15.875,-5.5625,348.4375,88.75,-178.8125,0.700806,0.085571,-0.704651,0.07074,-0.23,0.07,-0.22,9.8,0.19,-0.07,31
0.311898,9.59,0.25,-0.27,-2.6875,0.5,1.9375,-48.25,15.875,-5.5625,348.4375,88.75,-178.8125,0.700745,0.085327,-0.704712,0.070679,-0.2,0.06,-0.19,9.8,0.19,-0.07,31
0.321959,9.59,0.25,-0.27,-2.1875,1.0,1.5625,-47.1875,15.875,-5.25,348.1875,88.75,-178.8125,0.700623,0.086792,-0.704529,0.072266,-0.21,0.05,-0.19,9.8,0.19,-0.07,31
0.332021,9.59,0.25,-0.27,-0.75,1.0625,1.5,-47.1875,15.875,-5.25,348.1875,88.75,-178.875,0.700623,0.08667,-0.704529,0.072327,-0.19,0.07,-0.11,9.8,0.19,-0.07,31
0.342082,9.58,0.26,-0.21,-0.5625,0.9375,1.0625,-47.1875,15.875,-5.25,348.1875,88.75,-178.875,0.700684,0.086609,-0.704529,0.072388,-0.22,0.07,-0.13,9.8,0.19,-0.07,31
0.352143,9.58,0.25,-0.21,-0.4375,1.0625,0.75,-47.1875,15.875,-5.25,348.1875,88.75,-178.875,0.700684,0.086609,-0.704468,0.072388,-0.22,0.06,-0.13,9.8,0.18,-0.07,31
0.362204,9.56,0.27,-0.13,0.0625,1.0625,0.1875,-47.1875,15.875,-5.25,348.1875,88.75,-178.875,0.700745,0.086609,-0.704468,0.072388,-0.23,0.08,-0.05,9.8,0.19,-0.07,31
0.372265,9.56,0.27,-0.13,-0.5,0.875,0.125,-48.0,15.5625,-4.75,347.9375,88.75,-178.875,0.700623,0.087891,-0.704224,0.073669,-0.25,0.07,-0.08,9.8,0.19,-0.07,31
0.382327,9.53,0.24,-0.21,-0.875,0.125,0.75,-48.0,15.5625,-4.75,348.0,88.75,-178.875,0.700623,0.08783,-0.704285,0.073608,-0.26,0.05,-0.14,9.8,0.18,-0.07,31
0.392388,9.49,0.25,-0.28,-0.6875,-0.75,1.3125,-48.0,15.5625,-4.75,347.9375,88.8125,-178.875,0.7005,0.087708,-0.704346,0.073669,-0.31,0.06,-0.21,9.8,0.18,-0.07,31
0.402449,9.5,0.23,-0.23,-0.6875,-0.5625,1.6875,-48.0,15.5625,-4.75,347.9375,88.8125,-178.875,0.7005,0.087585,-0.704407,0.073669,-0.29,0.05,-0.16,9.8,0.18,-0.07,31
0.41251,9.54,0.24,-0.2,-1.0625,0.5,1.625,-48.0,15.5625,-4.75,347.9375,88.8125,-178.875,0.700439,0.087463,-0.704468,0.073669,-0.26,0.05,-0.13,9.8,0.18,-0.07,31
0.422572,9.51,0.2,-0.26,-1.1875,0.5625,1.1875,-48.25,16.25,-4.0625,347.9375,88.8125,-178.9375,0.700378,0.087463,-0.704529,0.073853,-0.28,0.02,-0.18,9.8,0.18,-0.07,31
0.432633,9.51,0.23,-0.22,-0.125,0.5625,1.0,-48.25,16.25,-4.0625,347.9375,88.8125,-178.9375,0.700378,0.087463,-0.704529,0.073853,-0.29,0.05,-0.14,9.8,0.18,-0.07,31
0.442694,9.53,0.25,-0.26,-0.125,0.75,0.0625,-48.25,16.25,-4.0625,347.9375,88.8125,-178.9375,0.700378,0.087463,-0.704529,0.073853,-0.26,0.07,-0.18,9.8,0.18,-0.07,31
0.452755,9.54,0.24,-0.22,-0.0625,1.9375,-0.3125,-48.25,16.25,-4.0625,347.9375,88.8125,-178.9375,0.700439,0.087463,-0.704468,0.073853,-0.26,0.06,-0.14,9.8,0.18,-0.07,31
0.462816,9.51,0.26,-0.13,-0.25,2.6875,-0.4375,-48.25,16.25,-4.0625,347.9375,88.8125,-178.875,0.700562,0.087463,-0.704346,0.073853,-0.28,0.08,-0.06,9.8,0.18,-0.07,31
0.472878,9.57,0.26,-0.12,-1.0,1.875,0.0625,-49.0,17.0,-4.0625,347.9375,88.8125,-178.875,0.700684,0.087524,-0.704224,0.073853,-0.22,0.08,-0.05,9.8,0.18,-0.07,31
0.482939,9.59,0.24,-0.12,-1.3125,0.875,0.3125,-49.0,17.0,-4.0625,347.9375,88.8125,-178.875,0.700745,0.087402,-0.704224,0.073792,-0.2,0.06,-0.05,9.8,0.18,-0.06,31
0.493,9.6,0.22,-0.15,-2.0,0.6875,0.625,-49.0,17.0,-4.0625,347.9375,88.8125,-178.9375,0.700745,0.08728,-0.704163,0.073669,-0.2,0.04,-0.08,9.8,0.18,-0.06,31
0.503061,9.59,0.24,-0.14,-2.25,0.8125,0.5625,-49.0,17.0,-4.0625,348.0,88.8125,-178.875,0.700806,0.087158,-0.704163,0.073547,-0.2,0.06,-0.07,9.8,0.18,-0.06,31
0.513123,9.56,0.24,-0.17,-2.0625,1.25,0.5,-49.0,17.0,-4.0625,348.0,88.8125,-178.875,0.700928,0.087036,-0.704102,0.073425,-0.23,0.06,-0.1,9.8,0.18,-0.06,31
0.523184,9.57,0.16,-0.29,-2.3125,0.5625,1.25,-48.25,16.6875,-4.75,347.875,88.875,-178.9375,0.700806,0.087646,-0.704041,0.074158,-0.22,-0.01,-0.22,9.8,0.18,-0.06,31
0.533245,9.53,0.17,-0.25,-0.875,-0.0625,1.8125,-48.25,16.6875,-4.75,347.875,88.875,-178.9375,0.700745,0.087524,-0.704102,0.074219,-0.26,0.0,-0.18,9.8,0.17,-0.06,31
0.543306,9.59,0.21,-0.25,-0.1875,-0.125,0.875,-48.25,16.6875,-4.75,347.875,88.875,-178.9375,0.700684,0.087463,-0.704163,0.07428,-0.21,0.04,-0.18,9.8,0.17,-0.06,31
0.553368,9.59,0.23,-0.16,-0.625,1.1875,0.375,-48.25,16.6875,-4.75,347.875,88.875,-178.9375,0.700745,0.087402,-0.704102,0.074219,-0.21,0.06,-0.09,9.8,0.17,-0.06,31
0.563429,9.61,0.25,-0.14,-1.5625,2.125,-0.125,-48.25,16.6875,-4.75,347.875,88.875,-178.9375,0.700867,0.087341,-0.704041,0.074158,-0.18,0.07,-0.07,9.8,0.17,-0.06,31
0.57349,9.6,0.26,-0.07,-0.875,2.375,-0.3125,-48.0,16.6875,-5.5625,347.625,88.875,-178.9375,0.700806,0.088989,-0.703674,0.075806,-0.2,0.08,-0.01,9.8,0.17,-0.06,31
0.583551,9.6,0.28,-0.08,-0.375,0.75,0.6875,-48.0,16.6875,-5.5625,347.625,88.875,-178.9375,0.700867,0.088928,-0.703674,0.075806,-0.19,0.1,-0.02,9.8,0.17,-0.05,31
0.593612,9.6,0.21,-0.17,-1.125,-1.0,2.0,-48.0,16.6875,-5.5625,347.625,88.875,-178.9375,0.700806,0.088745,-0.703735,0.075867,-0.19,0.04,-0.11,9.8,0.17,-0.06,31
0.603674,9.6,0.2,-0.16,-1.5625,-1.0625,1.8125,-48.0,16.6875,-5.5625,347.625,88.875,-179.0,0.700745,0.088562,-0.703857,0.075867,-0.19,0.02,-0.09,9.8,0.17,-0.06,31
0.613735,9.59,0.24,-0.14,-0.6875,0.0,0.875,-48.0,16.6875,-5.5625,347.625,88.9375,-179.0,0.700684,0.088501,-0.703857,0.075867,-0.21,0.07,-0.08,9.8,0.16,-0.06,31
0.623796,9.59,0.24,-0.11,0.0625,0.25,-0.0625,-48.25,16.25,-4.375,347.5625,88.9375,-179.0,0.700684,0.088806,-0.703857,0.076111,-0.2,0.07,-0.04,9.8,0.16,-0.06,31
0.633857,9.53,0.27,-0.12,0.25,0.5625,-0.4375,-48.25,16.25,-4.375,347.5625,88.875,-179.0,0.700684,0.088806,-0.703857,0.076111,-0.26,0.1,-0.06,9.8,0.17,-0.06,31
0.643919,9.54,0.28,-0.15,-0.25,0.375,-0.375,-48.25,16.25,-4.375,347.5625,88.875,-179.0,0.700623,0.088867,-0.703857,0.076111,-0.26,0.11,-0.09,9.8,0.17,-0.06,31
0.65398,9.51,0.26,-0.15,-0.75,-0.5,1.0,-48.25,16.25,-4.375,347.5625,88.9375,-179.0,0.700623,0.088745,-0.703857,0.07605,-0.28,0.09,-0.09,9.8,0.16,-0.06,31
0.664041,9.57,0.24,-0.24,-1.5,-0.875,1.1875,-48.25,16.25,-4.375,347.5625,88.9375,-179.0,0.700562,0.088623,-0.703979,0.07605,-0.22,0.08,-0.17,9.8,0.16,-0.06,31
0.674102,9.57,0.24,-0.24,-1.5,-0.875,1.1875,-48.25,17.375,-4.0625,347.5625,88.9375,-179.0,0.700562,0.088501,-0.704041,0.075989,-0.23,0.06,-0.15,9.8,0.16,-0.06,31
0.684163,9.56,0.23,-0.21,-1.4375,0.0625,1.0,-48.25,17.375,-4.0625,347.5625,88.9375,-179.0,0.700623,0.088379,-0.703979,0.075989,-0.27,0.05,-0.14,9.8,0.16,-0.06,31
0.694225,9.54,0.2,-0.21,-0.75,1.4375,0.4375,-48.25,17.375,-4.0625,347.625,88.9375,-179.0,0.700684,0.088318,-0.703918,0.075928,-0.26,0.04,-0.14,9.8,0.16,-0.06,31
0.704286,9.52,0.24,-0.21,-0.1875,0.5,-0.0625,-48.25,17.375,-4.0625,347.625,88.9375,-179.0,0.700623,0.088379,-0.703979,0.075928,-0.27,0.08,-0.15,9.8,0.16,-0.06,31
0.714347,9.51,0.24,-0.22,-0.1875,0.5,0.25,-48.25,17.375,-4.0625,347.625,88.9375,-179.0,0.700623,0.088379,-0.703979,0.075867,-0.29,0.08,-0.16,9.8,0.16,-0.06,31
0.724408,9.51,0.24,-0.22,-0.1875,0.5,0.25,-48.0,18.0625,-4.75,347.5625,88.9375,-179.0,0.700623,0.088623,-0.703918,0.076233,-0.25,0.08,-0.11,9.8,0.16,-0.06,31
0.73447,9.55,0.24,-0.18,-0.4375,1.5,0.6875,-48.0,18.0625,-4.75,347.5625,88.9375,-179.0,0.700745,0.088623,-0.703796,0.076233,-0.24,0.1,-0.06,9.8,0.16,-0.06,31
0.744531,9.56,0.24,-0.11,-1.0625,1.6875,0.875,-48.0,18.0625,-4.75,347.5625,88.9375,-179.0,0.700806,0.088501,-0.703735,0.076233,-0.23,0.07,-0.05,9.8,0.16,-0.05,31
0.754592,9.59,0.21,-0.11,-1.1875,0.625,0.625,-48.0,18.0625,-4.75,347.5625,88.9375,-179.0,0.700867,0.088379,-0.703735,0.076172,-0.21,0.05,-0.05,9.8,0.16,-0.05,31
0.764653,9.62,0.22,-0.11,-1.1875,0.0625,0.3125,-48.0,18.0625,-4.75,347.5625,88.9375,-179.0,0.700867,0.088318,-0.703735,0.076111,-0.18,0.06,-0.05,9.8,0.16,-0.05,31
0.774715,9.59,0.2,-0.15,-0.625,0.125,0.5,-48.25,15.875,-4.375,347.5,88.9375,-179.0,0.700806,0.088745,-0.703674,0.076477,-0.2,0.03,-0.09,9.8,0.16,-0.05,31
0.784776,9.63,0.22,-0.1,0.125,0.6875,-0.0625,-48.25,15.875,-4.375,347.5,88.9375,-179.0,0.700806,0.088745,-0.703674,0.076477,-0.16,0.05,-0.04,9.8,0.16,-0.05,31
0.794837,9.66,0.25,-0.04,0.125,0.8125,-0.25,-48.25,15.875,-4.375,347.5,88.9375,-179.0,0.700867,0.088745,-0.703613,0.076477,-0.14,0.08,0.01,9.8,0.16,-0.05,31
0.804898,9.64,0.24,-0.06,-0.25,0.5,0.0,-48.25,15.875,-4.375,347.5,88.9375,-179.0,0.700867,0.088745,-0.703613,0.076477,-0.15,0.07,0.0,9.8,0.16,-0.05,31
0.814959,9.61,0.21,-0.09,-0.75,-0.1875,-0.1875,-48.25,15.875,-4.375,347.5,88.9375,-179.0,0.700867,0.088684,-0.703613,0.076416,-0.19,0.05,-0.03,9.8,0.16,-0.05,31
0.825021,9.58,0.22,-0.19,-0.875,-1.0,-0.4375,-48.0,16.6875,-4.375,347.5,88.9375,-179.0,0.700806,0.088867,-0.703674,0.076538,-0.22,0.05,-0.13,9.8,0.16,-0.05,31
0.835082,9.54,0.23,-0.27,-0.5625,-1.3125,-0.1875,-48.0,16.6875,-4.375,347.5,88.9375,-179.0,0.700684,0.088867,-0.703735,0.076538,-0.26,0.06,-0.2,9.8,0.16,-0.06,31
0.845143,9.54,0.21,-0.28,-0.1875,-0.5,-0.3125,-48.0,16.6875,-4.375,347.5,88.9375,-179.0,0.700623,0.088928,-0.703796,0.076538,-0.26,0.05,-0.21,9.8,0.16,-0.06,31
0.855204,9.56,0.24,-0.28,0.3125,0.6875,-0.8125,-48.0,16.6875,-4.375,347.5,88.9375,-179.0,0.700623,0.088989,-0.703796,0.076416,-0.23,0.07,-0.21,9.8,0.16,-0.06,31
0.865266,9.52,0.26,-0.2,0.6875,1.75,-1.125,-48.0,16.6875,-4.375,347.5,88.9375,-179.0,0.700684,0.089111,-0.703735,0.076416,-0.27,0.09,-0.14,9.8,0.17,-0.06,31
0.875327,9.53,0.3,-0.16,1.3125,0.875,-1.0625,-48.0,17.375,-4.75,347.4375,88.875,-178.9375,0.700684,0.089661,-0.703613,0.076782,-0.26,0.12,-0.09,9.8,0.17,-0.06,31
0.885388,9.56,0.29,-0.16,0.8125,-0.3125,-0.25,-48.0,17.375,-4.75,347.4375,88.875,-178.9375,0.700623,0.089722,-0.703674,0.076843,-0.23,0.12,-0.09,9.8,0.17,-0.06,31
0.895449,9.62,0.28,-0.1,-0.25,-0.4375,0.75,-48.0,17.375,-4.75,347.4375,88.875,-178.9375,0.700623,0.089722,-0.703674,0.076843,-0.17,0.1,-0.04,9.8,0.17,-0.06,31
0.90551,9.59,0.27,-0.11,-0.6875,0.1875,1.375,-48.0,17.375,-4.75,347.4375,88.9375,-179.0,0.700623,0.0896,-0.703674,0.076904,-0.21,0.1,-0.05,9.8,0.17,-0.06,31
0.915572,9.58,0.26,-0.09,-1.3125,0.1875,2.1875,-48.0,17.375,-4.75,347.4375,88.9375,-179.0,0.700623,0.089417,-0.703735,0.076904,-0.21,0.09,-0.03,9.8,0.16,-0.06,31
0.925633,9.56,0.22,-0.14,-1.9375,0.375,2.625,-48.25,16.6875,-5.5625,347.1875,88.9375,-179.0,0.700439,0.090698,-0.703552,0.078552,-0.23,0.06,-0.08,9.8,0.16,-0.06,31
0.935694,9.56,0.2,-0.18,-1.4375,0.6875,1.8125,-48.25,16.6875,-5.5625,347.1875,89.0,-179.0625,0.7005,0.090515,-0.703552,0.078552,-0.23,0.04,-0.12,9.8,0.15,-0.06,31
0.945755,9.58,0.21,-0.2,-0.5,1.25,0.875,-48.25,16.6875,-5.5625,347.1875,89.0,-179.0625,0.700562,0.090454,-0.703491,0.078613,-0.22,0.05,-0.14,9.8,0.15,-0.05,31
0.955817,9.5,0.15,-0.16,0.25,1.75,0.1875,-48.25,16.6875,-5.5625,347.1875,89.0,-179.0625,0.700684,0.090454,-0.703369,0.078613,-0.29,0.0,-0.1,9.8,0.15,-0.05,31
0.965878,9.52,0.17,-0.2,1.1875,1.25,-0.5625,-48.25,16.6875,-5.5625,347.125,89.0,-179.0625,0.700745,0.090515,-0.703247,0.078735,-0.28,0.01,-0.15,9.8,0.15,-0.05,31
0.975939,9.52,0.17,-0.2,2.1875,-0.1875,-1.3125,-48.0,16.6875,-4.75,347.0625,89.0,-179.0625,0.700684,0.091187,-0.703186,0.079285,-0.21,0.1,-0.12,9.8,0.15,-0.05,31
0.986,9.58,0.26,-0.18,1.6875,-0.625,-0.625,-48.0,16.6875,-4.75,347.0625,89.0,-179.0,0.700623,0.09137,-0.703186,0.079346,-0.23,0.08,-0.09,9.8,0.16,-0.05,31
0.996062,9.59,0.25,-0.15,0.5,0.1875,-0.1875,-48.0,16.6875,-4.75,347.0625,89.0,-179.0,0.700623,0.09137,-0.703186,0.079346,-0.21,0.09,-0.1,9.8,0.16,-0.05,31
1.006123,9.6,0.29,-0.08,-0.5,1.375,-0.1875,-48.0,16.6875,-4.75,347.0625,89.0,-179.0,0.700684,0.09137,-0.703125,0.079346,-0.2,0.13,-0.03,9.8,0.16,-0.05,31
1.016184,9.59,0.25,-0.07,-1.1875,1.9375,0.5625,-48.0,16.6875,-4.75,347.0625,89.0,-179.0,0.700806,0.091248,-0.703003,0.079285,-0.2,0.09,-0.02,9.8,0.16,-0.05,31
1.026245,9.59,0.25,-0.07,-1.0625,1.625,0.625,-48.0,17.375,-4.0,347.0625,89.0,-179.0625,0.700928,0.091125,-0.702942,0.079224,-0.19,0.1,-0.04,9.8,0.15,-0.04,31
1.036306,9.61,0.26,-0.08,-0.5,0.875,0.5625,-48.0,17.375,-4.0,347.0625,89.0,-179.0625,0.700989,0.091125,-0.702881,0.079224,-0.21,0.06,-0.06,9.8,0.15,-0.04,31
1.046368,9.54,0.22,-0.17,0.0625,-0.0625,1.0625,-48.0,17.375,-4.0,347.0625,89.0,-179.0625,0.700989,0.091064,-0.702881,0.079346,-0.26,0.06,-0.12,9.8,0.15,-0.04,31
1.056429,9.55,0.22,-0.16,0.4375,-1.0625,0.8125,-48.0,17.375,-4.0,347.0625,89.0,-179.0625,0.700928,0.091003,-0.702942,0.079346,-0.25,0.06,-0.11,9.8,0.15,-0.04,31
1.06649,9.58,0.22,-0.19,-0.0625,-0.5,0.5625,-48.0,17.375,-4.0,347.0625,89.0,-179.0625,0.700928,0.091003,-0.702942,0.079346,-0.22,0.07,-0.14,9.8,0.15,-0.04,31
1.076551,9.53,0.2,-0.15,-0.625,0.5,0.875,-48.6875,16.6875,-4.375,347.0625,89.0,-179.0625,0.700867,0.091003,-0.702942,0.079468,-0.26,0.05,-0.1,9.8,0.15,-0.04,32
1.086613,9.55,0.19,-0.16,-1.1875,1.8125,0.625,-48.6875,16.6875,-4.375,347.0625,89.0,-179.0625,0.700989,0.090881,-0.702881,0.079407,-0.25,0.03,-0.12,9.8,0.15,-0.04,32
1.096674,9.54,0.19,-0.12,-0.8125,2.25,-0.25,-48.6875,16.6875,-4.375,347.0625,89.0625,-179.0625,0.701172,0.09082,-0.702759,0.079407,-0.25,0.04,-0.08,9.8,0.15,-0.04,32
1.106735,9.6,0.23,-0.06,0.3125,0.5625,-0.8125,-48.6875,16.6875,-4.375,347.0625,89.0,-179.0625,0.701172,0.090881,-0.702759,0.079346,-0.19,0.07,-0.02,9.8,0.15,-0.04,32
1.116796,9.64,0.23,-0.05,1.0,-1.3125,-0.5625,-48.6875,16.6875,-4.375,347.0625,89.0,-179.0625,0.70105,0.090942,-0.70282,0.079407,-0.15,0.08,-0.01,9.8,0.15,-0.04,32
1.126857,9.57,0.24,-0.16,0.125,-1.0625,-0.25,-49.0,17.0,-4.75,347.0,89.0,-179.0625,0.700989,0.091248,-0.70282,0.079712,-0.22,0.08,-0.12,9.8,0.15,-0.04,32
1.136919,9.59,0.23,-0.16,-0.625,0.5,-0.0625,-49.0,17.0,-4.75,347.0,89.0,-179.0625,0.700989,0.091187,-0.70282,0.079651,-0.21,0.08,-0.11,9.8,0.15,-0.04,32
1.14698,9.53,0.23,-0.14,-1.25,2.6875,0.0,-49.0,17.0,-4.75,347.0,89.0,-179.0625,0.701172,0.091125,-0.702698,0.07959,-0.26,0.07,-0.1,9.8,0.15,-0.04,32
1.157041,9.55,0.21,-0.08,-0.875,2.375,-0.4375,-49.0,17.0,-4.75,347.0,89.0625,-179.0625,0.701294,0.091064,-0.702515,0.07959,-0.24,0.06,-0.05,9.8,0.15,-0.03,32
1.167102,9.61,0.26,0.0,0.0625,-0.0625,-0.3125,-49.0,17.0,-4.75,347.0,89.0625,-179.0625,0.701294,0.091064,-0.702515,0.07959,-0.18,0.1,0.03,9.8,0.15,-0.03,32
1.177164,9.61,0.26,0.0,0.0625,-0.0625,-0.3125,-48.0,16.25,-5.25,346.8125,89.0,-179.0625,0.700989,0.092285,-0.702515,0.08075,-0.21,0.08,-0.07,9.8,0.15,-0.04,32
1.187225,9.58,0.23,-0.11,-0.3125,-2.4375,0.125,-48.0,16.25,-5.25,346.8125,89.0,-179.0625,0.700806,0.092285,-0.702698,0.08075,-0.21,0.05,-0.17,9.8,0.15,-0.04,32
1.197286,9.52,0.19,-0.31,-0.75,-1.5625,0.3125,-48.0,16.25,-5.25,346.8125,89.0,-179.0625,0.700745,0.092285,-0.70282,0.080688,-0.27,0.03,-0.26,9.8,0.15,-0.04,32
1.207347,9.52,0.21,-0.24,-0.8125,0.6875,-0.3125,-48.0,16.25,-5.25,346.8125,89.0,-179.0625,0.700806,0.092224,-0.702759,0.080627,-0.28,0.06,-0.2,9.8,0.15,-0.04,32
1.217409,9.51,0.23,-0.14,-0.75,2.0,-0.25,-48.0,16.25,-5.25,346.875,89.0,-179.0625,0.700928,0.092163,-0.702637,0.080627,-0.28,0.08,-0.1,9.8,0.15,-0.04,32
1.22747,9.52,0.22,-0.14,-1.1875,2.875,-0.125,-48.0,17.375,-4.75,346.875,89.0,-179.0625,0.701111,0.092041,-0.702515,0.080566,-0.27,0.07,-0.1,9.8,0.15,-0.03,32
1.237531,9.58,0.25,-0.06,-1.4375,2.625,0.0,-48.0,17.375,-4.75,346.875,89.0625,-179.0625,0.701294,0.09198,-0.702332,0.080505,-0.22,0.09,-0.03,9.8,0.15,-0.03,32
1.247592,9.55,0.22,-0.04,-1.3125,1.5625,-0.3125,-48.0,17.375,-4.75,346.875,89.0625,-179.0625,0.701355,0.091858,-0.702271,0.080444,-0.25,0.07,0.0,9.8,0.15,-0.03,32
1.257653,9.59,0.22,-0.03,-1.4375,0.625,-0.4375,-48.0,17.375,-4.75,346.875,89.0625,-179.0625,0.701416,0.091797,-0.702209,0.080383,-0.21,0.06,0.0,9.8,0.15,-0.03,32
1.267715,9.57,0.22,-0.06,-0.75,-0.75,-0.3125,-48.0,17.375,-4.75,346.875,89.0625,-179.0625,0.701355,0.091736,-0.702271,0.080322,-0.23,0.07,-0.03,9.8,0.15,-0.03,32
1.277776,9.56,0.21,-0.1,-0.9375,-1.25,-0.0625,-48.0,16.25,-4.375,346.875,89.0625,-179.0625,0.701294,0.091797,-0.702332,0.080322,-0.23,0.05,-0.06,9.8,0.15,-0.03,32
1.287837,9.53,0.17,-0.19,-1.5,-1.1875,-0.125,-48.0,16.25,-4.375,346.9375,89.0625,-179.0625,0.701233,0.091675,-0.702454,0.0802,-0.27,0.01,-0.15,9.8,0.15,-0.03,32
1.297898,9.5,0.17,-0.21,-1.0,-0.1875,-0.5,-48.0,16.25,-4.375,346.9375,89.0625,-179.0625,0.701233,0.091614,-0.702454,0.080139,-0.3,0.02,-0.18,9.8,0.15,-0.03,32
1.30796,9.48,0.19,-0.2,0.0625,0.3125,-0.8125,-48.0,16.25,-4.375,346.9375,89.0,-179.0625,0.701233,0.091675,-0.702454,0.080139,-0.32,0.03,-0.16,9.8,0.15,-0.03,32
1.318021,9.48,0.21,-0.18,0.25,1.0,-1.125,-48.0,16.25,-4.375,346.9375,89.0,-179.0625,0.701294,0.091736,-0.702393,0.080078,-0.31,0.05,-0.14,9.8,0.15,-0.03,32
1.328082,9.51,0.22,-0.2,0.0,1.6875,-1.6875,-47.1875,16.6875,-3.25,347.0625,89.0,-179.0,0.701477,0.091248,-0.702332,0.079407,-0.29,0.06,-0.17,9.8,0.16,-0.03,32
1.338143,9.51,0.22,-0.2,0.75,2.375,-2.1875,-47.1875,16.6875,-3.25,347.0625,89.0,-179.0,0.70166,0.09137,-0.702148,0.079285,-0.28,0.04,-0.12,9.8,0.16,-0.02,32
1.348204,9.62,0.31,-0.05,0.75,2.75,-3.375,-47.1875,16.6875,-3.25,347.125,88.9375,-178.9375,0.701843,0.091614,-0.701965,0.079163,-0.18,0.13,-0.03,9.8,0.17,-0.02,32
1.358266,9.63,0.26,-0.06,-1.0,2.375,-2.8125,-47.1875,16.6875,-3.25,347.125,88.9375,-178.9375,0.702026,0.091736,-0.701843,0.078979,-0.17,0.09,-0.04,9.8,0.17,-0.01,32
1.368327,9.59,0.25,-0.06,-1.75,1.8125,-1.75,-47.1875,16.6875,-3.25,347.1875,88.9375,-178.9375,0.702148,0.091736,-0.701721,0.078796,-0.21,0.07,-0.04,9.8,0.17,-0.01,32
1.378388,9.59,0.25,-0.06,-1.875,0.875,-1.1875,-48.0,16.6875,-6.0,347.1875,88.9375,-178.9375,0.702209,0.091675,-0.70166,0.078613,-0.19,0.06,-0.06,9.8,0.18,-0.01,32
1.388449,9.61,0.24,-0.07,-1.875,0.875,-1.1875,-48.0,16.6875,-6.0,347.25,88.9375,-178.9375,0.702209,0.091492,-0.70166,0.07843,-0.2,0.04,-0.1,9.8,0.18,-0.01,32
1.398511,9.57,0.17,-0.19,-2.375,0.875,-0.375,-48.0,16.6875,-6.0,347.25,88.9375,-178.9375,0.702332,0.09137,-0.70166,0.078308,-0.22,0.0,-0.18,9.8,0.18,-0.01,32
1.408572,9.59,0.21,-0.11,-1.8125,1.5625,-1.25,-48.0,16.6875,-6.0,347.25,88.875,-178.875,0.702393,0.091309,-0.701538,0.078125,-0.2,0.03,-0.1,9.8,0.18,0.0,32
1.418633,9.58,0.2,-0.12,-1.5625,1.875,-2.0625,-48.0,16.6875,-6.0,347.3125,88.875,-178.875,0.702576,0.091309,-0.701416,0.077942,-0.22,0.02,-0.11,9.8,0.18,0.0,32
1.428694,9.58,0.2,-0.12,-0.5625,1.1875,-2.25,-48.0,16.6875,-5.25,347.3125,88.875,-178.875,0.702637,0.091492,-0.701355,0.07782,-0.24,0.02,-0.13,9.8,0.19,0.0,32
1.438756,9.55,0.21,-0.13,-0.5625,1.1875,-2.25,-48.0,16.6875,-5.25,347.375,88.8125,-178.8125,0.702637,0.091614,-0.701294,0.077637,-0.27,0.03,-0.21,9.8,0.19,0.0,32
1.448817,9.56,0.25,-0.17,0.1875,0.75,-2.1875,-48.0,16.6875,-5.25,347.375,88.8125,-178.8125,0.702698,0.091736,-0.701233,0.077515,-0.24,0.05,-0.17,9.8,0.19,0.0,32
1.458878,9.57,0.26,-0.11,0.6875,1.0625,-2.0625,-48.0,16.6875,-5.25,347.375,88.8125,-178.8125,0.70282,0.091919,-0.701172,0.077454,-0.22,0.06,-0.11,9.8,0.2,0.0,32
1.468939,9.57,0.3,-0.08,0.0,2.0,-1.8125,-48.0,16.6875,-5.25,347.4375,88.75,-1.1875,0.702942,0.09198,-0.70105,0.077393,-0.22,0.09,-0.08,9.8,0.2,0.0,32
1.479,9.57,0.3,-0.08,0.0,2.0,-1.8125,-48.0,17.375,-4.75,347.4375,88.75,-1.1875,0.703064,0.092041,-0.700867,0.077271,-0.23,0.11,-0.02,9.8,0.2,0.0,32
1.489062,9.56,0.31,-0.01,-0.8125,2.25,-1.4375,-48.0,17.375,-4.75,347.4375,88.75,-1.1875,0.703247,0.092041,-0.700745,0.077148,-0.18,0.09,0.03,9.8,0.2,0.0,32
1.499123,9.59,0.29,0.04,-0.6875,1.75,-1.5,-48.0,17.375,-4.75,347.4375,88.75,-1.1875,0.703369,0.092041,-0.700623,0.077026,-0.2,0.08,0.02,9.8,0.21,0.01,32
1.509184,9.59,0.35,0.04,-0.9375,1.0,-1.875,-48.0,17.375,-4.75,347.5,88.6875,-1.25,0.70343,0.092102,-0.700562,0.076904,-0.2,0.13,0.02,9.8,0.21,0.01,32
1.519245,9.6,0.32,-0.01,-1.3125,-0.125,-1.75,-48.0,17.375,-4.75,347.5,88.6875,-1.25,0.70343,0.092102,-0.700562,0.076721,-0.2,0.1,-0.02,9.8,0.21,0.01,32
1.529307,9.6,0.32,-0.01,-1.3125,-0.125,-1.75,-48.0,17.375,-4.75,347.5625,88.6875,-1.25,0.703491,0.092102,-0.700562,0.076477,-0.25,0.05,-0.16,9.8,0.21,0.01,32
1.539368,9.54,0.27,-0.14,-2.25,-0.1875,-1.5,-49.0,16.6875,-5.5625,347.625,88.6875,-1.25,0.703491,0.092041,-0.700562,0.076233,-0.25,0.02,-0.11,9.8,0.22,0.01,32
1.549429,9.56,0.24,-0.11,-2.1875,0.4375,-1.8125,-49.0,16.6875,-5.5625,347.625,88.625,-1.3125,0.703552,0.09198,-0.700562,0.075989,-0.23,0.02,-0.12,9.8,0.22,0.01,32
1.55949,9.57,0.23,-0.14,-1.3125,0.0625,-1.875,-49.0,16.6875,-5.5625,347.6875,88.625,-1.3125,0.703552,0.092041,-0.700562,0.075806,-0.22,0.0,-0.15,9.8,0.22,0.01,32
1.569551,9.54,0.24,-0.15,-0.125,-0.3125,-1.625,-49.0,16.6875,-5.5625,347.6875,88.625,-1.3125,0.703552,0.092102,-0.700562,0.075745,-0.26,0.01,-0.16,9.8,0.23,0.01,32
1.579613,9.56,0.27,-0.15,0.875,-1.0625,-1.75,-49.375,16.25,-5.25,347.6875,88.625,-1.3125,0.703491,0.092285,-0.700623,0.075684,-0.23,0.03,-0.16,9.8,0.23,0.01,32
1.589674,9.54,0.27,-0.15,0.5,-1.0625,-1.8125,-49.375,16.25,-5.25,347.6875,88.5625,-1.375,0.70343,0.092407,-0.700623,0.075562,-0.25,0.03,-0.16,9.8,0.23,0.01,32
1.599735,9.53,0.28,-0.17,0.3125,0.5,-1.875,-49.375,16.25,-5.25,347.75,88.5625,-1.375,0.703491,0.092529,-0.700623,0.075439,-0.26,0.04,-0.18,9.8,0.24,0.01,32
1.609796,9.55,0.3,-0.09,-0.6875,2.625,-2.5,-49.375,16.25,-5.25,347.75,88.5625,-1.375,0.703613,0.09259,-0.700439,0.075256,-0.24,0.06,-0.1,9.8,0.24,0.01,32
1.619858,9.6,0.33,-0.03,-1.625,3.375,-2.8125,-49.375,16.25,-5.25,347.8125,88.5,-1.4375,0.703857,0.092651,-0.700256,0.075012,-0.19,0.09,-0.05,9.8,0.24,0.02,32
1.629919,9.56,0.38,0.0,-1.25,2.5625,-2.3125,-48.6875,15.5625,-5.5625,347.8125,88.5,-1.4375,0.704041,0.092712,-0.700073,0.074829,-0.23,0.13,-0.01,9.8,0.25,0.02,32
1.63998,9.56,0.32,-0.02,-1.5625,0.4375,-1.8125,-48.6875,15.5625,-5.5625,347.875,88.4375,-1.4375,0.704102,0.092712,-0.700073,0.074646,-0.23,0.06,-0.05,9.8,0.25,0.02,32
1.650041,9.62,0.33,-0.11,-2.125,0.25,-1.5,-48.6875,15.5625,-5.5625,347.875,88.4375,-1.5,0.704102,0.092712,-0.700073,0.074402,-0.18,0.07,-0.14,9.8,0.25,0.02,32
1.660103,9.53,0.32,-0.09,-1.6875,1.25,-1.0625,-48.6875,15.5625,-5.5625,347.9375,88.4375,-1.5,0.704224,0.092651,-0.700012,0.074219,-0.26,0.06,-0.12,9.8,0.26,0.02,32
1.670164,9.52,0.28,-0.06,-2.3125,1.0,-0.5625,-48.6875,15.5625,-5.5625,347.9375,88.4375,-1.5,0.704285,0.092468,-0.699951,0.074097,-0.27,0.02,-0.09,9.8,0.26,0.02,32
1.680225,9.54,0.26,-0.07,-2.1875,0.25,0.125,-48.6875,16.25,-4.75,348.0,88.4375,-1.5,0.704285,0.092346,-0.699951,0.073975,-0.25,0.0,-0.1,9.8,0.26,0.02,32
1.690286,9.56,0.25,-0.07,-1.5625,0.375,-0.0625,-48.6875,16.25,-4.75,348.0,88.4375,-1.5,0.704285,0.092285,-0.700012,0.073914,-0.24,0.0,-0.1,9.8,0.26,0.02,32
1.700347,9.57,0.27,-0.09,-1.0,0.375,-0.3125,-48.6875,16.25,-4.75,348.0,88.4375,-1.5,0.704285,0.092224,-0.700012,0.073853,-0.22,0.01,-0.12,9.8,0.26,0.02,32
1.710409,9.54,0.25,-0.11,-0.3125,-0.375,-0.4375,-48.6875,16.25,-4.75,348.0,88.4375,-1.5,0.704285,0.092224,-0.700012,0.073853,-0.26,0.0,-0.14,9.8,0.26,0.02,32
1.72047,9.57,0.25,-0.12,-0.1875,-0.625,-0.9375,-48.6875,16.25,-4.75,348.0,88.4375,-1.5,0.704285,0.092285,-0.700012,0.073792,-0.22,0.0,-0.15,9.8,0.26,0.02,32
1.730531,9.57,0.28,-0.12,-0.1875,0.25,-1.5,-48.0,16.25,-5.5625,348.0,88.4375,-1.5,0.704285,0.092346,-0.700012,0.073669,-0.22,0.01,-0.15,9.8,0.26,0.02,32
1.740592,9.57,0.28,-0.12,-0.4375,1.9375,-1.875,-48.0,16.25,-5.5625,348.0625,88.375,-1.5,0.704407,0.092468,-0.69989,0.073608,-0.24,0.02,-0.12,9.8,0.26,0.03,32
1.750654,9.57,0.33,0.02,-0.6875,2.5625,-2.1875,-48.0,16.25,-5.5625,348.0625,88.375,-1.5625,0.70459,0.092529,-0.699707,0.073425,-0.22,0.06,-0.01,9.8,0.27,0.03,32
1.760715,9.57,0.36,0.0,-1.1875,2.25,-2.1875,-48.0,16.25,-5.5625,348.125,88.375,-1.5625,0.704773,0.09259,-0.699585,0.073242,-0.22,0.08,-0.04,9.8,0.27,0.03,32
1.770776,9.55,0.33,-0.01,-1.75,1.3125,-1.875,-48.0,16.25,-5.5625,348.125,88.3125,-1.5625,0.704834,0.09259,-0.699463,0.073059,-0.24,0.06,-0.05,9.8,0.27,0.04,32
1.780837,9.55,0.33,-0.01,-1.75,1.3125,-1.875,-47.5625,15.875,-4.75,348.1875,88.3125,-1.625,0.704895,0.092529,-0.699463,0.072815,-0.23,0.05,-0.04,9.8,0.28,0.04,32
1.790898,9.56,0.33,0.0,-1.9375,0.8125,-1.5625,-47.5625,15.875,-4.75,348.1875,88.3125,-1.625,0.705017,0.092468,-0.699341,0.072632,-0.21,0.03,-0.02,9.8,0.28,0.04,32
1.80096,9.56,0.31,-0.06,-3.625,1.25,-1.3125,-47.5625,15.875,-4.75,348.25,88.3125,-1.625,0.705139,0.092285,-0.69928,0.072327,-0.24,0.03,-0.11,9.8,0.28,0.04,32
1.811021,9.54,0.28,-0.06,-3.875,0.875,-1.5,-47.5625,15.875,-4.75,348.3125,88.25,-1.625,0.705261,0.092163,-0.69928,0.072021,-0.26,0.0,-0.11,9.8,0.28,0.04,32
1.821082,9.54,0.28,-0.07,-3.5,0.5625,-1.25,-47.5625,15.875,-4.75,348.375,88.25,-1.6875,0.705261,0.092041,-0.69928,0.071716,-0.25,0.0,-0.12,9.8,0.28,0.04,32
1.831143,9.54,0.28,-0.07,-2.4375,0.25,-0.8125,-48.6875,17.0,-6.375,348.375,88.25,-1.6875,0.705322,0.091919,-0.69928,0.071533,-0.31,0.0,-0.18,9.8,0.29,0.05,32
1.841205,9.48,0.28,-0.13,-2.4375,0.25,-0.8125,-48.6875,17.0,-6.375,348.4375,88.25,-1.6875,0.705322,0.091858,-0.69928,0.071411,-0.31,-0.01,-0.2,9.8,0.29,0.05,32
1.851266,9.51,0.31,-0.14,-0.875,0.5625,-1.1875,-48.6875,17.0,-6.375,348.4375,88.25,-1.6875,0.705322,0.091919,-0.69928,0.071228,-0.28,0.02,-0.19,9.8,0.29,0.05,32
1.861327,9.53,0.31,-0.09,-0.5,1.1875,-1.1875,-48.6875,17.0,-6.375,348.4375,88.1875,-1.6875,0.705383,0.09198,-0.699219,0.071167,-0.27,0.01,-0.14,9.8,0.29,0.05,32
1.871388,9.52,0.33,-0.1,-0.0625,1.9375,-1.8125,-48.6875,17.0,-6.375,348.4375,88.1875,-1.6875,0.705505,0.092041,-0.699097,0.071106,-0.27,0.03,-0.16,9.8,0.29,0.05,32
1.88145,9.52,0.33,-0.1,-0.0625,1.9375,-1.8125,-48.6875,15.875,-4.375,348.5,88.1875,-1.75,0.705688,0.092163,-0.698914,0.070984,-0.22,0.04,-0.16,9.8,0.3,0.05,32
1.891511,9.57,0.34,-0.1,-0.125,2.625,-2.0,-48.6875,15.875,-4.375,348.5,88.125,-1.75,0.705933,0.092163,-0.69873,0.070801,-0.2,0.07,-0.12,9.8,0.3,0.06,32
1.901572,9.59,0.35,0.02,-4.125,4.5625,-1.875,-48.6875,15.875,-4.375,348.5625,88.125,-1.75,0.706238,0.09198,-0.698425,0.070496,-0.2,0.04,-0.04,9.8,0.3,0.07,32
1.911633,9.64,0.34,0.1,-4.6875,6.0625,-2.0625,-48.6875,15.875,-4.375,348.625,88.0625,-1.8125,0.706604,0.091797,-0.698059,0.070129,-0.15,0.03,0.01,9.8,0.31,0.08,32
1.921694,9.56,0.31,0.12,-5.6875,5.375,-2.5,-48.6875,15.875,-4.375,348.6875,88.0625,-1.8125,0.707031,0.091614,-0.697754,0.069702,-0.23,0.0,0.02,9.8,0.31,0.09,32
1.931756,9.58,0.33,0.04,-6.4375,3.3125,-2.9375,-49.0,16.6875,-5.25,348.8125,88.0,-1.875,0.707275,0.09137,-0.697571,0.069153,-0.21,0.01,-0.04,9.8,0.32,0.09,32
1.941817,9.6,0.36,0.0,-6.4375,2.3125,-3.75,-49.0,16.6875,-5.25,348.875,87.9375,-1.875,0.707458,0.091187,-0.697449,0.068542,-0.19,0.04,-0.11,9.8,0.32,0.1,32
1.951878,9.45,0.44,-0.02,-6.375,4.0625,-6.0625,-49.0,16.6875,-5.25,349.0,87.875,-1.9375,0.707825,0.091125,-0.697205,0.067871,-0.34,0.1,-0.13,9.8,0.33,0.1,32
1.961939,9.58,0.35,-0.01,-7.3125,5.0625,-7.1875,-49.0,16.6875,-5.25,349.125,87.8125,-2.0,0.708191,0.091064,-0.696899,0.067017,-0.21,0.0,-0.13,9.79,0.34,0.11,32
1.972001,9.59,0.4,0.04,-8.875,5.5625,-6.5625,-49.0,16.6875,-5.25,349.3125,87.75,-2.0625,0.708618,0.090881,-0.696533,0.066162,-0.2,0.04,-0.07,9.79,0.35,0.12,32
1.982062,9.56,0.38,0.04,-7.8125,5.3125,-7.75,-48.25,15.875,-4.375,349.4375,87.625,-2.125,0.709045,0.090881,-0.696228,0.065308,-0.23,0.01,-0.09,9.79,0.37,0.13,32
1.992123,9.55,0.42,0.11,-5.6875,2.875,-8.625,-48.25,15.875,-4.375,349.5625,87.5625,-2.25,0.709351,0.091003,-0.695984,0.064453,-0.24,0.03,-0.02,9.79,0.38,0.14,32
2.002184,9.53,0.51,0.1,-4.625,-0.25,-8.25,-48.25,15.875,-4.375,349.6875,87.5,-2.3125,0.709412,0.091248,-0.695984,0.06366,-0.26,0.11,-0.04,9.79,0.4,0.14,32
2.012245,9.58,0.51,0.04,-3.875,-1.8125,-7.5,-48.25,15.875,-4.375,349.8125,87.4375,-2.375,0.709351,0.091431,-0.696045,0.062988,-0.2,0.09,-0.09,9.79,0.41,0.14,32
2.022307,9.61,0.43,0.01,-3.3125,-2.0625,-7.0,-48.25,15.875,-4.375,349.9375,87.375,-2.4375,0.70929,0.091675,-0.696106,0.062378,-0.17,0.01,-0.12,9.79,0.42,0.13,32
2.032368,9.58,0.47,0.0,-2.4375,-0.75,-6.875,-48.6875,16.25,-4.375,350.0,87.3125,-2.5,0.709351,0.091919,-0.696106,0.061768,-0.2,0.03,-0.13,9.79,0.43,0.13,32
2.042429,9.58,0.47,0.0,-2.25,0.5625,-7.25,-48.6875,16.25,-4.375,350.125,87.25,-2.5625,0.709351,0.092224,-0.696106,0.061218,-0.2,0.06,-0.11,9.79,0.44,0.13,32
2.05249,9.56,0.54,-0.01,-3.25,1.0,-6.4375,-48.6875,16.25,-4.375,350.1875,87.1875,-2.625,0.709473,0.092407,-0.695984,0.060669,-0.22,0.08,-0.15,9.79,0.45,0.13,32
2.062552,9.54,0.47,-0.03,-3.8125,1.8125,-5.125,-48.6875,16.25,-4.375,350.3125,87.125,-2.6875,0.709656,0.092468,-0.695862,0.06012,-0.25,0.01,-0.17,9.79,0.46,0.14,32
2.072613,9.58,0.49,0.01,-3.6875,1.8125,-3.875,-48.6875,16.25,-4.375,350.375,87.0625,-2.75,0.709839,0.092468,-0.69574,0.059692,-0.2,0.01,-0.13,9.79,0.47,0.14,32
2.082674,9.57,0.51,0.0,-3.0,2.6875,-4.0,-48.6875,15.5625,-6.375,350.4375,87.0625,-2.75,0.710022,0.092529,-0.695557,0.059265,-0.21,0.03,-0.14,9.79,0.47,0.14,32
2.092735,9.57,0.51,0.0,-2.8125,2.3125,-3.375,-48.6875,15.5625,-6.375,350.5,87.0,-2.8125,0.710205,0.092529,-0.695435,0.05896,-0.19,0.08,-0.08,9.79,0.48,0.15,32
2.102797,9.58,0.47,-0.03,-3.5,1.625,-2.375,-48.6875,15.5625,-6.375,350.5625,86.9375,-2.8125,0.710327,0.092468,-0.695312,0.058594,-0.2,-0.01,-0.18,9.79,0.48,0.15,32
2.112858,9.55,0.42,0.04,-2.75,2.0,-1.8125,-48.6875,15.5625,-6.375,350.5625,86.9375,-2.8125,0.710449,0.092346,-0.69519,0.05835,-0.24,-0.06,-0.11,9.79,0.49,0.16,32
2.122919,9.54,0.42,0.04,-2.375,2.125,-2.3125,-48.6875,15.5625,-6.375,350.625,86.9375,-2.875,0.710632,0.092346,-0.695068,0.058044,-0.24,-0.07,-0.12,9.79,0.49,0.16,32
2.13298,9.54,0.42,0.04,-2.375,2.125,-2.3125,-48.25,15.5625,-4.75,350.6875,86.875,-2.875,0.710815,0.092346,-0.694885,0.0578,-0.24,-0.03,-0.09,9.79,0.5,0.16,32
2.143041,9.54,0.46,0.06,-2.125,2.625,-2.75,-48.25,15.5625,-4.75,350.6875,86.875,-2.9375,0.710999,0.092468,-0.694702,0.057556,-0.23,0.01,-0.07,9.79,0.5,0.17,32
2.153103,9.56,0.56,0.13,-1.5,2.0625,-3.125,-48.25,15.5625,-4.75,350.75,86.8125,-2.9375,0.711182,0.092529,-0.69458,0.057251,-0.22,0.05,-0.04,9.79,0.51,0.17,32
2.163164,9.55,0.54,0.13,-2.1875,1.0,-2.4375,-48.25,15.5625,-4.75,350.8125,86.8125,-3.0,0.711243,0.092529,-0.694519,0.057007,-0.24,0.02,-0.04,9.79,0.51,0.17,32
2.173225,9.61,0.48,0.07,-2.3125,0.5,-2.1875,-48.25,15.5625,-4.75,350.875,86.75,-3.0,0.711304,0.092529,-0.694458,0.056763,-0.17,-0.03,-0.1,9.79,0.51,0.17,32
2.183286,9.61,0.48,0.07,-2.3125,0.5,-2.1875,-49.0,15.1875,-4.75,350.875,86.75,-3.0,0.711304,0.092529,-0.694458,0.056458,-0.26,-0.03,-0.1,9.79,0.52,0.17,32
2.193348,9.52,0.48,0.07,-2.6875,0.25,-2.4375,-49.0,15.1875,-4.75,350.9375,86.6875,-3.0625,0.711426,0.09259,-0.694397,0.056152,-0.22,0.0,-0.15,9.79,0.52,0.18,32
2.203409,9.52,0.53,0.05,-1.0625,1.6875,-3.4375,-49.0,15.1875,-4.75,351.0,86.6875,-3.0625,0.711548,0.092712,-0.694275,0.055847,-0.26,0.0,-0.12,9.79,0.53,0.18,32
2.21347,9.56,0.49,0.1,-1.4375,1.875,-3.125,-49.0,15.1875,-4.75,351.0625,86.625,-3.125,0.71167,0.092834,-0.694092,0.055603,-0.22,-0.04,-0.08,9.79,0.53,0.18,32
2.223531,9.53,0.5,0.05,-2.5625,2.1875,-3.5,-49.0,15.1875,-4.75,351.0625,86.5625,-3.125,0.711853,0.092896,-0.69397,0.055237,-0.25,-0.04,-0.13,9.78,0.54,0.19,32
2.233592,9.53,0.5,0.05,-2.5625,2.1875,-3.5,-48.6875,15.875,-5.25,351.125,86.5625,-3.1875,0.712036,0.092896,-0.693787,0.054871,-0.25,-0.03,-0.11,9.78,0.55,0.19,32
2.243654,9.53,0.51,0.08,-3.125,2.75,-3.375,-48.6875,15.875,-5.25,351.1875,86.5,-3.1875,0.71228,0.092834,-0.693604,0.054504,-0.21,-0.07,-0.07,9.78,0.55,0.2,32
2.253715,9.53,0.45,0.14,-3.6875,2.3125,-3.1875,-48.6875,15.875,-5.25,351.25,86.5,-3.25,0.712402,0.092773,-0.693481,0.054138,-0.25,-0.1,-0.06,9.78,0.55,0.2,32
2.263776,9.55,0.41,0.1,-3.5625,1.625,-3.875,-48.6875,15.875,-5.25,351.375,86.4375,-3.25,0.712585,0.092773,-0.693359,0.053711,-0.23,-0.15,-0.1,9.78,0.56,0.2,32
2.273837,9.56,0.48,0.14,-3.5,0.625,-4.25,-48.6875,15.875,-5.25,351.4375,86.375,-3.3125,0.712646,0.092773,-0.693298,0.053223,-0.22,-0.08,-0.06,9.78,0.57,0.21,32
2.283899,9.56,0.48,0.14,-3.5,0.625,-4.25,-48.6875,15.875,-5.25,351.5,86.375,-3.375,0.712769,0.092957,-0.693237,0.052856,-0.22,-0.05,-0.17,9.78,0.58,0.21,32
2.29396,9.56,0.52,0.03,-2.0,0.9375,-4.5,-49.0,14.375,-5.1875,351.5625,86.3125,-3.375,0.71283,0.093079,-0.693115,0.05249,-0.25,-0.04,-0.24,9.78,0.58,0.21,32
2.304021,9.5,0.58,-0.04,-2.125,2.375,-4.375,-49.0,14.375,-5.1875,351.625,86.25,-3.4375,0.712952,0.093201,-0.692993,0.052124,-0.27,0.0,-0.25,9.78,0.59,0.21,32
2.314082,9.47,0.65,-0.02,-2.125,4.25,-4.3125,-49.0,14.375,-5.1875,351.6875,86.1875,-3.5,0.713196,0.093323,-0.69281,0.051758,-0.31,0.05,-0.24,9.78,0.6,0.22,32
2.324144,9.47,0.68,0.01,-3.25,5.5625,-4.375,-49.0,14.375,-5.1875,351.75,86.1875,-3.5625,0.713501,0.093384,-0.692505,0.051331,-0.31,0.07,-0.21,9.78,0.6,0.23,32
2.334205,9.52,0.7,0.09,-4.625,7.125,-4.625,-48.6875,15.5625,-5.5625,351.8125,86.0625,-3.5625,0.713928,0.093323,-0.692078,0.050781,-0.25,0.09,-0.14,9.78,0.61,0.24,32
2.344266,9.51,0.67,0.15,-5.875,8.75,-5.375,-48.6875,15.5625,-5.5625,351.9375,86.0,-3.625,0.714478,0.093262,-0.691589,0.050171,-0.27,0.04,-0.1,9.78,0.62,0.25,32
2.354327,9.57,0.71,0.18,-6.875,9.5625,-6.0625,-48.6875,15.5625,-5.5625,352.0625,85.9375,-3.6875,0.715088,0.093201,-0.69104,0.049438,-0.2,0.08,-0.08,9.78,0.63,0.27,32
2.364388,9.53,0.69,0.21,-8.375,8.9375,-5.75,-48.6875,15.5625,-5.5625,352.1875,85.8125,-3.75,0.715698,0.093018,-0.690491,0.048706,-0.24,0.05,-0.07,9.78,0.64,0.28,32
2.37445,9.62,0.71,0.32,-9.6875,8.3125,-5.375,-48.6875,15.5625,-5.5625,352.3125,85.75,-3.8125,0.716248,0.092712,-0.690002,0.047852,-0.15,0.06,0.02,9.78,0.65,0.3,32
2.384511,9.57,0.69,0.27,-11.0,9.1875,-5.5625,-48.25,15.5625,-5.5625,352.5,85.6875,-3.875,0.716919,0.092346,-0.689392,0.046936,-0.19,0.02,-0.04,9.77,0.66,0.31,32
2.394572,9.54,0.66,0.22,-11.625,9.3125,-4.75,-48.25,15.5625,-5.5625,352.625,85.5625,-3.875,0.717529,0.091858,-0.688904,0.046021,-0.23,0.0,-0.1,9.77,0.67,0.33,32
2.404633,9.56,0.52,0.24,-10.625,9.0625,-4.75,-48.25,15.5625,-5.5625,352.75,85.5,-3.9375,0.718201,0.091492,-0.688354,0.045227,-0.21,-0.15,-0.1,9.77,0.67,0.34,32
2.414695,9.5,0.63,0.28,-8.1875,8.875,-5.375,-48.25,15.5625,-5.5625,352.875,85.4375,-4.0,0.71875,0.091248,-0.687805,0.044495,-0.27,-0.05,-0.07,9.77,0.68,0.36,32
2.424756,9.5,0.68,0.32,-5.9375,7.1875,-6.3125,-48.25,15.5625,-5.5625,353.0,85.3125,-4.0625,0.719238,0.091248,-0.687317,0.043762,-0.27,-0.01,-0.04,9.77,0.69,0.37,32
2.434817,9.48,0.71,0.27,-7.4375,6.0,-6.8125,-49.0,15.1875,-6.0,353.125,85.25,-4.125,0.719666,0.091187,-0.686951,0.042969,-0.28,0.0,-0.1,9.77,0.7,0.38,32
2.444878,9.49,0.6,0.26,-8.6875,8.875,-6.0625,-49.0,15.1875,-6.0,353.25,85.1875,-4.1875,0.720276,0.090942,-0.686401,0.042175,-0.27,-0.1,-0.13,9.77,0.71,0.4,32
2.454939,9.26,0.56,0.11,-11.3125,11.0,-7.5,-49.0,15.1875,-6.0,353.4375,85.0625,-4.25,0.720947,0.090637,-0.685791,0.041199,-0.5,-0.16,-0.3,9.77,0.72,0.42,32
2.465001,9.65,0.7,0.27,-14.125,12.0,-8.0,-49.0,15.1875,-6.0,353.625,84.9375,-4.3125,0.721741,0.09021,-0.685059,0.039978,-0.11,-0.03,-0.16,9.76,0.73,0.44,32
2.475062,9.61,0.6,0.2,-14.1875,17.8125,-8.625,-49.0,15.1875,-6.0,353.8125,84.75,-4.375,0.722839,0.089722,-0.684082,0.038757,-0.14,-0.14,-0.26,9.76,0.75,0.47,32
2.485123,9.61,0.6,0.2,-14.1875,21.625,-10.9375,-48.25,13.6875,-6.0,354.0625,84.5625,-4.4375,0.724182,0.089417,-0.682739,0.037476,-0.38,-0.02,-0.02,9.76,0.76,0.5,32
2.495184,9.38,0.74,0.48,-18.5,24.375,-14.6875,-48.25,13.6875,-6.0,354.3125,84.3125,-4.5625,0.725769,0.088989,-0.681274,0.035706,-0.2,-0.27,-0.19,9.75,0.78,0.54,32
2.505246,9.34,0.5,0.31,-20.0,29.3125,-20.125,-48.25,13.6875,-6.0,354.6875,84.0625,-4.75,0.727539,0.088806,-0.679443,0.03363,-0.41,-0.31,-0.28,9.75,0.81,0.59,32
2.515307,9.28,0.74,0.46,-21.75,30.4375,-23.625,-48.25,13.6875,-6.0,355.0625,83.6875,-4.9375,0.729431,0.088684,-0.677551,0.03125,-0.46,-0.11,-0.18,9.74,0.85,0.64,32
2.525368,9.39,0.8,0.72,-25.25,31.4375,-26.5625,-48.25,13.6875,-6.0,355.5,83.3125,-5.1875,0.731445,0.088501,-0.675537,0.028381,-0.34,-0.08,0.02,9.74,0.89,0.7,32
2.535429,9.39,0.8,0.72,-25.25,31.4375,-26.5625,-48.6875,13.6875,-5.5625,356.0625,82.875,-50.9375,0.733643,0.088379,-0.67334,0.025146,-0.38,-0.12,-0.02,9.73,0.93,0.76,32
2.545491,9.34,0.81,0.73,-29.0,32.9375,-30.25,-48.6875,13.6875,-5.5625,356.625,82.4375,-50.25,0.73584,0.088196,-0.671082,0.021484,-0.42,-0.08,-0.09,9.72,0.98,0.82,32
2.555552,9.37,0.96,0.83,-35.1875,32.125,-36.5625,-48.6875,13.6875,-5.5625,357.25,81.9375,-49.875,0.737976,0.088013,-0.668823,0.017456,-0.33,-0.08,-0.04,9.71,1.04,0.88,32
2.565613,9.31,0.95,0.84,-33.25,31.75,-40.9375,-48.6875,13.6875,-5.5625,357.9375,81.4375,-49.6875,0.740051,0.088196,-0.666626,0.013245,-0.38,-0.15,-0.08,9.69,1.1,0.93,32
2.575674,9.37,1.03,0.93,-29.375,29.0625,-45.25,-48.6875,13.6875,-5.5625,358.5625,80.9375,-49.8125,0.741943,0.088867,-0.66449,0.008972,-0.3,-0.14,-0.06,9.68,1.17,0.99,32
2.585735,9.37,1.03,0.93,-23.1875,27.125,-49.125,-48.6875,13.0,-7.1875,359.1875,80.4375,-50.25,0.743652,0.090332,-0.662415,0.005066,-0.29,-0.12,-0.19,9.67,1.25,1.04,32
2.595797,9.37,1.12,0.84,-23.1875,27.125,-49.125,-48.6875,13.0,-7.1875,359.8125,79.875,-50.8125,0.745117,0.09198,-0.660522,0.001038,-0.44,-0.11,-0.11,9.65,1.33,1.08,32
2.605858,9.13,1.15,0.82,-22.25,23.25,-53.8125,-48.6875,13.0,-7.1875,0.5,79.375,-51.4375,0.746582,0.093567,-0.658691,-0.003357,-0.49,-0.25,-0.29,9.63,1.41,1.12,32
2.615919,9.38,1.42,0.7,-26.5625,28.0,-57.25,-48.6875,13.0,-7.1875,1.25,78.75,-51.875,0.748291,0.095032,-0.656494,-0.00824,-0.23,-0.07,-0.47,9.61,1.5,1.17,32
2.62598,9.36,1.45,0.82,-28.5,37.5625,-60.1875,-48.6875,13.0,-7.1875,2.0,78.0625,-51.9375,0.750549,0.096619,-0.653564,-0.013306,-0.22,-0.13,-0.42,9.59,1.59,1.24,32
2.636042,9.36,1.45,0.82,-28.5,37.5625,-60.1875,-48.6875,13.0,-7.1875,2.75,77.3125,-51.625,0.753357,0.098206,-0.649963,-0.018372,-0.33,-0.02,-0.34,9.56,1.68,1.33,32
2.646103,9.23,1.66,0.98,-31.6875,48.1875,-61.6875,-48.25,11.5,-8.0,3.625,76.5,-51.1875,0.756531,0.099487,-0.645935,-0.024048,-0.35,-0.08,-0.16,9.53,1.78,1.43,32
2.656164,9.0,1.65,1.47,-44.375,54.4375,-66.0625,-48.25,11.5,-8.0,4.5,75.6875,-50.75,0.759705,0.100342,-0.641785,-0.030212,-0.49,-0.21,-0.05,9.5,1.87,1.53,32
2.666225,9.0,1.85,1.65,-53.25,50.875,-68.125,-48.25,11.5,-8.0,5.5,74.875,-50.375,0.762695,0.100769,-0.637756,-0.037048,-0.45,-0.11,0.02,9.46,1.97,1.63,32
2.676286,8.94,1.92,1.65,-58.0625,47.375,-69.875,-48.25,11.5,-8.0,6.5625,74.0625,-50.0625,0.765503,0.100891,-0.633911,-0.04425,-0.48,-0.13,-0.06,9.43,2.06,1.72,32
2.686348,8.94,1.95,1.67,-60.875,42.125,-69.0,-49.375,9.6875,-8.75,7.6875,73.25,-49.875,0.768005,0.10083,-0.63031,-0.051636,-0.44,-0.19,-0.13,9.39,2.15,1.81,32
2.696409,8.87,2.04,1.67,-60.9375,39.3125,-66.625,-49.375,9.6875,-8.75,8.6875,72.5,-49.6875,0.770325,0.100586,-0.626953,-0.058899,-0.48,-0.2,-0.22,9.35,2.24,1.89,32
2.70647,8.91,2.08,1.55,-60.375,38.75,-63.8125,-49.375,9.6875,-8.75,9.75,71.8125,-49.5,0.772522,0.10022,-0.623535,-0.065918,-0.4,-0.24,-0.43,9.31,2.32,1.98,32
2.716531,8.8,2.2,1.47,-58.1875,39.9375,-61.0625,-49.375,9.6875,-8.75,10.6875,71.125,-49.1875,0.77478,0.099854,-0.620056,-0.072632,-0.47,-0.19,-0.59,9.28,2.4,2.06,32
2.726593,8.99,2.28,1.74,-50.75,39.8125,-56.9375,-49.375,9.6875,-8.75,11.5,70.4375,-48.9375,0.776917,0.099792,-0.616638,-0.078674,-0.25,-0.18,-0.4,9.24,2.47,2.15,32
2.736654,8.93,2.33,1.85,-43.5625,41.8125,-54.0,-49.25,7.5,-10.75,12.25,69.75,-48.625,0.779114,0.100098,-0.613159,-0.084045,-0.26,-0.2,-0.37,9.2,2.53,2.23,32
2.746715,8.99,2.43,2.14,-42.9375,44.3125,-54.0,-49.25,7.5,-10.75,13.0,69.125,-48.25,0.781372,0.100342,-0.609436,-0.089417,-0.17,-0.17,-0.17,9.16,2.6,2.32,32
2.756776,8.77,2.5,2.0,-48.0625,48.4375,-56.5625,-49.25,7.5,-10.75,13.8125,68.375,-47.8125,0.783813,0.100464,-0.605408,-0.095215,-0.34,-0.16,-0.41,9.11,2.67,2.42,32
2.766838,8.98,2.52,2.21,-47.75,53.75,-59.375,-49.25,7.5,-10.75,14.625,67.625,-47.375,0.786438,0.100769,-0.600891,-0.101135,-0.08,-0.21,-0.3,9.06,2.74,2.52,32
2.776899,8.83,2.66,2.36,-47.0,57.8125,-59.75,-49.25,7.5,-10.75,15.4375,66.8125,-46.875,0.789246,0.101135,-0.59613,-0.106995,-0.18,-0.15,-0.26,9.01,2.81,2.63,32
2.78696,8.74,2.55,2.67,-49.5625,58.5625,-59.625,-48.875,5.5625,-12.0,16.1875,66.0,-46.375,0.792053,0.10144,-0.591248,-0.112915,-0.21,-0.33,-0.07,8.96,2.88,2.74,32
2.797021,8.66,2.77,3.26,-46.875,61.25,-56.75,-48.875,5.5625,-12.0,16.9375,65.1875,-45.8125,0.794983,0.101685,-0.586182,-0.11853,-0.24,-0.17,0.39,8.9,2.94,2.86,32
2.807082,8.47,2.63,2.67,-53.25,61.6875,-54.4375,-48.875,5.5625,-12.0,17.6875,64.375,-45.1875,0.797913,0.10144,-0.581055,-0.124329,-0.36,-0.36,-0.3,8.84,3.0,2.98,32
2.817144,8.59,2.89,2.56,-48.4375,62.1875,-54.9375,-48.875,5.5625,-12.0,18.375,63.5625,-44.625,0.800781,0.101501,-0.575867,-0.129822,-0.18,-0.16,-0.53,8.78,3.06,3.1,32
2.827205,8.34,3.13,2.64,-35.4375,62.75,-54.375,-48.875,5.5625,-12.0,19.0,62.8125,-44.125,0.803528,0.102417,-0.57074,-0.134705,-0.37,0.01,-0.56,8.72,3.12,3.21,32
2.837266,8.27,3.08,2.87,-26.1875,62.5,-53.25,-49.6875,4.5,-13.5625,19.5625,62.0,-43.8125,0.806091,0.103882,-0.565735,-0.13916,-0.38,-0.09,-0.43,8.66,3.18,3.31,32
2.847327,8.4,3.03,3.01,-21.5625,64.1875,-51.6875,-49.6875,4.5,-13.5625,20.0625,61.1875,-43.5,0.808716,0.105652,-0.560608,-0.143127,-0.19,-0.2,-0.4,8.59,3.24,3.42,32
2.857389,8.48,3.19,3.29,-18.8125,69.5625,-49.5,-49.6875,4.5,-13.5625,20.5,60.375,-43.0625,0.811584,0.107544,-0.555176,-0.14679,-0.04,-0.11,-0.23,8.52,3.3,3.53,32
2.86745,8.21,3.25,3.32,-17.625,77.5,-47.8125,-49.6875,4.5,-13.5625,20.875,59.5,-42.625,0.814758,0.109497,-0.549194,-0.150208,-0.24,-0.11,-0.32,8.45,3.36,3.65,32
2.877511,8.21,3.35,3.22,-12.375,84.75,-47.5625,-49.6875,4.5,-13.5625,21.1875,58.625,-42.125,0.818176,0.111938,-0.542725,-0.153259,-0.15,-0.07,-0.55,8.37,3.42,3.78,32
2.887572,8.21,3.35,3.22,-1.4375,91.625,-47.6875,-47.875,1.875,-16.75,21.375,57.625,-41.75,0.821777,0.115356,-0.535889,-0.155457,-0.21,-0.19,-0.59,8.28,3.49,3.91,32
2.897633,8.06,3.29,3.32,9.3125,96.0,-48.25,-47.875,1.875,-16.75,21.5625,56.625,-41.375,0.825378,0.119507,-0.52887,-0.157471,-0.28,-0.18,-0.71,8.19,3.56,4.04,32
2.907695,7.65,3.49,4.55,3.75,87.0625,-49.6875,-47.875,1.875,-16.75,21.8125,55.6875,-41.125,0.828552,0.123108,-0.522278,-0.159851,-0.44,-0.13,0.39,8.1,3.63,4.15,32
2.917756,7.52,3.71,4.31,-15.0,72.6875,-48.875,-47.875,1.875,-16.75,22.1875,54.8125,-40.875,0.831238,0.125183,-0.516479,-0.163208,-0.49,0.02,0.04,8.01,3.69,4.26,32
2.927817,7.53,3.8,4.11,-22.75,66.4375,-49.3125,-47.875,1.875,-16.75,22.625,54.0625,-40.5625,0.833679,0.126648,-0.510986,-0.166931,-0.4,0.06,-0.25,7.94,3.74,4.37,32
2.937878,7.53,3.8,4.11,-24.6875,64.375,-49.875,-45.5625,0.875,-19.0625,23.0625,53.25,-40.25,0.835999,0.128052,-0.505554,-0.170715,-0.32,-0.03,-0.24,7.86,3.79,4.47,32
2.94794,7.53,3.75,4.22,-25.5,62.375,-50.8125,-45.5625,0.875,-19.0625,23.5,52.4375,-40.0,0.838196,0.129333,-0.500183,-0.174683,-0.35,-0.19,0.12,7.77,3.83,4.57,32
2.958001,7.46,3.69,4.77,-24.1875,58.9375,-51.4375,-45.5625,0.875,-19.0625,24.0,51.6875,-39.8125,0.840149,0.130676,-0.495056,-0.178711,-0.23,-0.19,0.1,7.7,3.88,4.66,32
2.968062,7.45,3.87,4.99,-21.3125,52.5,-51.3125,-45.5625,0.875,-19.0625,24.4375,51.0,-39.625,0.841797,0.13208,-0.490479,-0.182678,-0.16,-0.06,0.24,7.62,3.93,4.74,32
2.978123,7.4,3.97,5.09,-18.5,44.9375,-48.4375,-45.5625,0.875,-19.0625,24.875,50.375,-39.5625,0.84314,0.133484,-0.48645,-0.186401,-0.15,-0.01,0.27,7.55,3.98,4.81,32
2.988185,7.4,3.97,5.09,-18.5,44.9375,-48.4375,-45.5625,-2.0625,-21.1875,25.4375,49.8125,-39.5625,0.843872,0.13446,-0.483032,-0.190796,-0.14,-0.27,-0.06,7.49,4.03,4.87,32
2.998246,7.34,3.75,4.8,-12.3125,39.625,-46.125,-45.5625,-2.0625,-21.1875,25.8125,49.1875,-39.6875,0.844666,0.136841,-0.479858,-0.193848,-0.32,-0.4,0.02,7.42,4.09,4.92,32
3.008307,7.06,3.76,5.1,1.125,35.0625,-50.4375,-45.5625,-2.0625,-21.1875,26.1875,48.625,-39.875,0.845215,0.139587,-0.476746,-0.19696,-0.29,-0.39,0.13,7.36,4.15,4.96,32
3.018368,7.05,4.03,5.22,-3.5,37.25,-54.375,-45.5625,-2.0625,-21.1875,26.625,48.0,-40.0625,0.845886,0.14209,-0.473389,-0.200562,-0.24,-0.18,0.2,7.29,4.21,5.01,32
3.028429,6.91,4.14,5.26,-5.9375,37.75,-55.0625,-45.5625,-2.0625,-21.1875,27.125,47.375,-40.1875,0.846497,0.144531,-0.46991,-0.204285,-0.3,-0.13,0.2,7.22,4.28,5.06,32
3.038491,6.91,4.14,5.26,-5.9375,37.75,-55.0625,-45.5625,-2.0625,-21.1875,27.5625,46.875,-40.3125,0.846924,0.146301,-0.466919,-0.20813,-0.26,-0.09,-0.07,7.15,4.33,5.11,32
3.048552,6.89,4.23,5.03,-10.5625,30.5625,-52.125,-44.375,-3.5625,-24.0,28.0625,46.375,-40.375,0.847229,0.147827,-0.464172,-0.211792,-0.11,-0.01,-0.3,7.09,4.38,5.15,32
3.058613,6.84,4.32,4.77,-12.25,29.5625,-47.5625,-44.375,-3.5625,-24.0,28.5,45.8125,-40.4375,0.847717,0.149353,-0.461243,-0.215332,-0.19,-0.1,-0.42,7.03,4.43,5.19,32
3.068674,6.69,4.16,4.96,-19.625,34.6875,-47.5,-44.375,-3.5625,-24.0,28.9375,45.25,-40.375,0.84845,0.150391,-0.457764,-0.219055,-0.27,-0.3,-0.28,6.97,4.46,5.25,32
3.078736,6.55,4.2,5.17,-31.0,40.625,-50.1875,-44.375,-3.5625,-24.0,29.4375,44.6875,-40.1875,0.849426,0.150879,-0.453674,-0.223328,-0.33,-0.29,-0.14,6.89,4.5,5.32,32
3.088797,6.51,4.15,5.23,-41.375,44.5625,-55.4375,-43.6875,-5.375,-24.875,30.0625,44.0,-39.9375,0.850464,0.150574,-0.449036,-0.228882,-0.29,-0.37,-0.17,6.81,4.52,5.4,32
3.098858,6.49,4.16,5.49,-48.75,45.5,-60.875,-43.6875,-5.375,-24.875,30.75,43.25,-39.625,0.851624,0.150269,-0.444031,-0.234497,-0.22,-0.38,0.0,6.72,4.55,5.49,32
3.108919,6.43,4.22,5.61,-51.375,42.5625,-64.875,-43.6875,-5.375,-24.875,31.5,42.5625,-39.3125,0.852539,0.149841,-0.439148,-0.24054,-0.19,-0.35,0.03,6.63,4.57,5.58,32
3.11898,6.38,4.31,5.54,-49.375,35.875,-65.8125,-43.6875,-5.375,-24.875,32.25,41.875,-39.0625,0.853149,0.149414,-0.434692,-0.246643,-0.16,-0.28,-0.12,6.55,4.6,5.66,32
3.129042,6.28,4.36,5.52,-43.75,28.875,-66.3125,-43.6875,-5.375,-24.875,32.9375,41.25,-38.9375,0.853333,0.149292,-0.430847,-0.252686,-0.19,-0.26,-0.2,6.47,4.63,5.72,32
3.139103,6.23,4.33,5.38,-37.3125,24.5625,-66.5,-43.6875,-6.875,-26.0,33.9375,40.6875,-38.875,0.852722,0.148621,-0.427734,-0.260376,-0.16,-0.33,-0.4,6.39,4.67,5.78,32
3.149164,6.26,4.28,5.25,-27.0,23.75,-66.625,-43.6875,-6.875,-26.0,34.625,40.0625,-38.9375,0.852417,0.149597,-0.424622,-0.265869,-0.05,-0.43,-0.57,6.31,4.71,5.83,32
3.159225,6.17,4.25,5.36,-14.125,23.5,-65.875,-43.6875,-6.875,-26.0,35.25,39.5,-39.0625,0.85199,0.151489,-0.421753,-0.270813,-0.07,-0.51,-0.5,6.24,4.77,5.86,32
3.169287,6.14,4.19,5.49,-5.8125,22.75,-65.25,-43.6875,-6.875,-26.0,35.8125,38.9375,-39.3125,0.851318,0.153687,-0.419312,-0.275269,-0.02,-0.63,-0.4,6.17,4.83,5.89,32
3.179348,5.96,4.51,5.73,-3.8125,23.3125,-64.25,-43.6875,-6.875,-26.0,36.375,38.4375,-39.5,0.850708,0.156128,-0.416809,-0.279663,-0.13,-0.37,-0.18,6.09,4.89,5.92,32
3.189409,5.93,4.57,5.66,-6.25,23.25,-62.375,-41.0625,-7.875,-26.25,37.1875,37.875,-39.6875,0.849426,0.15741,-0.41449,-0.286133,-0.09,-0.37,-0.28,6.02,4.94,5.95,32
3.19947,5.94,4.63,5.7,-6.875,26.125,-60.75,-41.0625,-7.875,-26.25,37.75,37.3125,-39.875,0.848938,0.159668,-0.411682,-0.290344,0.0,-0.36,-0.27,5.94,5.0,5.98,32
3.209532,5.75,4.71,5.73,-7.6875,29.5625,-60.0625,-41.0625,-7.875,-26.25,38.25,36.6875,-40.0,0.848633,0.161926,-0.408508,-0.294556,-0.1,-0.34,-0.28,5.86,5.05,6.01,32
3.219593,5.79,4.65,6.03,-9.25,31.125,-59.125,-41.0625,-7.875,-26.25,38.75,36.125,-40.0625,0.848328,0.164062,-0.405273,-0.298645,0.01,-0.44,-0.02,5.78,5.1,6.05,32
3.229654,5.64,4.64,5.82,-11.0,31.875,-56.9375,-41.0625,-7.875,-26.25,39.25,35.5,-40.125,0.848145,0.166016,-0.401917,-0.302673,-0.05,-0.5,-0.27,5.69,5.14,6.09,32
3.239715,5.64,4.64,5.82,-4.6875,31.25,-53.625,-40.375,-10.0625,-27.875,39.875,34.9375,-40.25,0.84729,0.167603,-0.399048,-0.3078,-0.1,-0.55,-0.36,5.62,5.19,6.13,32
3.249776,5.51,4.64,5.76,5.375,28.0625,-49.875,-40.375,-10.0625,-27.875,40.25,34.4375,-40.4375,0.846863,0.17041,-0.396484,-0.310791,-0.19,-0.5,-0.24,5.54,5.24,6.15,32
3.259838,5.62,4.46,6.05,15.875,23.875,-45.8125,-40.375,-10.0625,-27.875,40.5625,33.9375,-40.6875,0.846252,0.173706,-0.394531,-0.313171,0.14,-0.84,-0.1,5.48,5.3,6.16,32
3.269899,5.13,4.4,5.93,27.3125,21.3125,-47.375,-40.375,-10.0625,-27.875,40.875,33.5,-41.125,0.845276,0.177795,-0.393066,-0.315308,-0.28,-0.97,-0.22,5.41,5.37,6.15,32
3.27996,5.29,4.46,6.29,40.0,20.0625,-53.6875,-40.375,-10.0625,-27.875,41.1875,33.0,-41.6875,0.843872,0.182983,-0.391846,-0.317505,-0.04,-1.0,0.15,5.34,5.46,6.13,32
3.290021,5.29,4.46,6.29,44.25,16.875,-62.0625,-40.0,-11.1875,-29.5,41.75,32.5,-42.3125,0.841797,0.188232,-0.391052,-0.321045,-0.15,-0.85,0.17,5.27,5.57,6.11,32
3.300083,5.11,4.71,6.28,38.4375,12.8125,-72.625,-40.0,-11.1875,-29.5,42.25,31.9375,-42.9375,0.8396,0.193726,-0.390015,-0.324707,-0.35,-1.03,-0.13,5.18,5.67,6.08,32
3.310144,4.9,4.98,5.9,27.75,12.1875,-79.625,-40.0,-11.1875,-29.5,42.875,31.3125,-43.5,0.837341,0.198608,-0.388611,-0.329224,-0.19,-0.78,-0.16,5.09,5.77,6.07,32
3.320205,4.81,5.31,5.69,15.625,15.1875,-82.6875,-40.0,-11.1875,-29.5,43.625,30.625,-43.9375,0.835266,0.202881,-0.386597,-0.334351,-0.19,-0.54,-0.37,5.0,5.85,6.06,32
3.330266,4.68,5.5,5.89,1.75,19.6875,-84.375,-40.0,-11.1875,-29.5,44.3125,29.9375,-44.25,0.833435,0.206299,-0.383789,-0.339844,-0.21,-0.42,-0.18,4.89,5.93,6.08,32
3.340328,4.68,5.5,5.89,-16.3125,24.625,-84.75,-38.0625,-14.75,-28.5625,45.4375,29.1875,-44.3125,0.831055,0.20752,-0.380676,-0.348328,0.04,-0.71,-0.45,4.78,5.98,6.11,32
3.350389,4.82,5.27,5.66,-33.9375,26.75,-82.0625,-38.0625,-14.75,-28.5625,46.25,28.4375,-44.1875,0.830078,0.208557,-0.376343,-0.354736,0.03,-0.44,-0.51,4.67,6.01,6.17,32
3.36045,4.36,5.56,5.89,-51.0,27.25,-77.9375,-38.0625,-14.75,-28.5625,47.0625,27.75,-43.875,0.829468,0.208252,-0.371521,-0.361328,-0.2,-0.45,-0.35,4.56,6.02,6.24,32
3.370511,4.13,5.87,6.31,-68.9375,30.375,-72.25,-38.0625,-14.75,-28.5625,47.8125,27.0625,-43.375,0.829407,0.206604,-0.366028,-0.367981,-0.32,-0.12,-0.02,4.46,6.0,6.34,32
3.380572,4.29,5.86,6.32,-84.5625,34.8125,-65.0,-38.0625,-14.75,-28.5625,48.5625,26.375,-42.6875,0.829895,0.203735,-0.359802,-0.374512,-0.06,-0.09,-0.12,4.35,5.95,6.45,32
3.390634,4.29,5.86,6.32,-84.5625,34.8125,-65.0,-37.0,-16.6875,-28.5625,49.5,25.6875,-41.875,0.829773,0.199158,-0.353638,-0.383057,0.05,-0.03,-0.32,4.25,5.89,6.57,32
3.400695,4.31,5.86,6.25,-93.875,39.4375,-56.9375,-37.0,-16.6875,-28.5625,50.125,25.125,-40.9375,0.831055,0.194946,-0.346741,-0.388794,-0.13,0.0,-0.24,4.16,5.82,6.7,32
3.410756,3.79,5.48,6.7,-108.625,34.625,-43.5,-37.0,-16.6875,-28.5625,50.6875,24.5625,-39.9375,0.832397,0.189697,-0.340027,-0.394409,-0.28,-0.24,-0.12,4.08,5.72,6.83,32
3.420817,3.71,5.4,6.63,-110.6875,31.5,-41.1875,-37.0,-16.6875,-28.5625,51.25,24.0625,-38.9375,0.833618,0.184143,-0.333435,-0.399963,-0.29,-0.22,-0.32,4.0,5.62,6.96,32
3.430879,3.72,5.42,6.7,-102.6875,31.3125,-39.9375,-37.0,-16.6875,-28.5625,51.75,23.625,-38.0,0.834717,0.179077,-0.327087,-0.405151,-0.2,-0.1,-0.37,3.93,5.53,7.07,32
3.44094,3.72,5.42,6.7,-102.6875,31.3125,-39.9375,-37.0,-16.6875,-28.5625,52.25,23.125,-37.1875,0.835388,0.17511,-0.321289,-0.410156,0.09,0.06,-0.31,3.85,5.45,7.18,32
3.451001,3.94,5.51,6.86,-85.8125,33.8125,-38.75,-35.5,-17.5,-32.5625,52.6875,22.625,-36.625,0.835999,0.172913,-0.315796,-0.414124,0.08,-0.29,0.09,3.77,5.4,7.26,32
3.461062,3.68,4.8,7.87,-50.4375,38.875,-45.3125,-35.5,-17.5,-32.5625,53.125,22.0625,-36.1875,0.836121,0.171936,-0.310608,-0.418091,0.0,-0.56,0.53,3.68,5.36,7.33,32
3.471123,3.49,4.62,7.99,-49.8125,39.25,-58.75,-35.5,-17.5,-32.5625,53.625,21.375,-35.75,0.835815,0.171326,-0.305237,-0.422974,-0.08,-0.71,0.59,3.58,5.34,7.4,32
3.481185,2.91,4.55,8.01,-62.5,31.5,-82.25,-35.5,-17.5,-32.5625,54.5,20.6875,-35.375,0.834534,0.170166,-0.299561,-0.429932,-0.55,-0.75,0.53,3.46,5.31,7.47,32
3.491246,2.76,4.0,7.81,-76.25,26.6875,-104.375,-34.0,-15.0625,-34.5625,55.5625,19.875,-34.875,0.832336,0.168335,-0.293457,-0.439026,-0.58,-1.26,0.24,3.34,5.27,7.56,32
3.501307,2.82,4.41,7.71,-87.625,28.9375,-124.9375,-34.0,-15.0625,-34.5625,56.875,19.0,-34.3125,0.82959,0.166321,-0.286377,-0.449524,-0.36,-0.81,0.06,3.19,5.23,7.65,32
3.511368,2.54,4.66,7.54,-99.8125,34.5625,-144.0625,-34.0,-15.0625,-34.5625,58.3125,17.9375,-33.6875,0.826294,0.164124,-0.278076,-0.461487,-0.48,-0.51,-0.21,3.02,5.17,7.76,32
3.52143,2.6,5.11,7.37,-106.375,44.3125,-155.0625,-34.0,-15.0625,-34.5625,59.875,16.75,-32.9375,0.822632,0.162048,-0.268677,-0.474121,-0.22,0.0,-0.5,2.82,5.11,7.87,32
3.531491,1.83,6.82,7.36,-99.6875,56.125,-162.75,-34.0,-15.0625,-34.5625,61.4375,15.4375,-32.3125,0.818665,0.161011,-0.258484,-0.486877,-0.78,1.76,-0.62,2.61,5.05,7.98,32
3.541552,3.51,4.99,7.38,-82.75,65.5625,-167.0,-30.25,-15.0625,-36.1875,63.0,14.0,-31.75,0.814209,0.161621,-0.24823,-0.499268,1.13,-0.01,-0.69,2.38,5.01,8.08,32
3.551613,3.23,6.2,7.73,-82.75,65.5625,-167.0,-30.25,-15.0625,-36.1875,64.5625,12.625,-31.1875,0.80957,0.16217,-0.237915,-0.511536,1.08,1.24,-0.44,2.15,4.96,8.18,32
3.561675,2.72,7.04,8.01,-64.1875,59.3125,-136.5625,-30.25,-15.0625,-36.1875,65.75,11.4375,-30.75,0.805664,0.163086,-0.229248,-0.521301,0.77,2.12,-0.24,1.95,4.92,8.25,32
3.571736,2.86,5.77,8.27,-31.5625,37.5625,-70.6875,-30.25,-15.0625,-36.1875,66.375,10.8125,-30.5625,0.803711,0.16394,-0.224304,-0.526184,1.01,0.87,-0.02,1.84,4.89,8.29,32
3.581797,2.64,5.16,8.27,-28.4375,29.625,-42.0,-30.25,-15.0625,-36.1875,66.75,10.375,-30.3125,0.802795,0.164124,-0.220459,-0.529175,0.87,0.29,-0.04,1.76,4.87,8.32,32
3.591858,2.2,4.63,8.36,-31.625,27.25,-28.6875,-27.75,-16.25,-38.1875,67.0625,10.0,-30.0,0.802002,0.163574,-0.216919,-0.531921,0.5,-0.2,0.0,1.7,4.83,8.35,32
3.601919,1.7,4.23,8.42,-31.625,27.25,-28.6875,-27.75,-16.25,-38.1875,67.3125,9.625,-29.75,0.801697,0.163147,-0.213196,-0.534058,0.06,-0.56,0.03,1.64,4.79,8.39,32
3.611981,1.43,4.06,8.3,-37.75,27.0625,-29.0625,-27.75,-16.25,-38.1875,67.5625,9.25,-29.375,0.801392,0.162354,-0.20929,-0.536316,-0.14,-0.68,-0.13,1.58,4.75,8.43,32
3.622042,1.43,4.2,8.07,-39.4375,24.4375,-37.0625,-27.75,-16.25,-38.1875,67.875,8.875,-29.0625,0.800659,0.161438,-0.205322,-0.539185,-0.08,-0.49,-0.38,1.51,4.7,8.46,32
3.632103,1.45,4.46,8.2,-33.5,21.3125,-45.875,-27.75,-16.25,-38.1875,68.3125,8.5,-28.75,0.799377,0.16095,-0.201721,-0.542603,0.0,-0.2,-0.29,1.44,4.66,8.5,32
3.642164,1.45,4.46,8.2,-14.4375,17.6875,-54.9375,-24.5,-15.875,-40.1875,68.8125,8.0625,-28.6875,0.797363,0.161743,-0.199097,-0.546265,0.06,0.2,-0.51,1.38,4.66,8.51,32
3.652226,1.44,4.86,7.99,-14.4375,17.6875,-54.9375,-24.5,-15.875,-40.1875,69.3125,7.6875,-28.5625,0.795288,0.162476,-0.196472,-0.549988,-0.06,0.37,-0.66,1.31,4.65,8.53,32
3.662287,1.45,5.19,8.19,-8.9375,18.5625,-54.8125,-24.5,-15.875,-40.1875,69.8125,7.25,-28.5625,0.793213,0.163635,-0.194092,-0.553528,0.21,0.54,-0.34,1.24,4.65,8.54,32
3.672348,1.76,5.14,8.29,-8.75,21.8125,-52.3125,-24.5,-15.875,-40.1875,70.25,6.8125,-28.5,0.791199,0.164917,-0.191467,-0.556885,0.59,0.49,-0.26,1.16,4.65,8.55,32
3.682409,1.58,5.03,8.25,-19.375,20.1875,-41.6875,-24.5,-15.875,-40.1875,70.625,6.4375,-28.375,0.789856,0.165283,-0.188599,-0.559692,0.47,0.4,-0.32,1.1,4.63,8.57,32
3.69247,1.58,5.03,8.25,-32.1875,13.6875,-13.3125,-24.75,-15.5625,-41.5,70.75,6.25,-28.0625,0.789856,0.164001,-0.185974,-0.560913,0.34,0.18,-0.55,1.07,4.58,8.6,32
3.702532,1.42,4.77,8.04,-32.1875,13.6875,-13.3125,-24.75,-15.5625,-41.5,70.875,6.125,-27.75,0.789856,0.16272,-0.18335,-0.562134,0.24,-0.02,-0.42,1.04,4.54,8.62,32
3.712593,1.14,4.32,8.46,-27.375,11.625,-8.875,-24.75,-15.5625,-41.5,70.9375,5.9375,-27.5,0.790039,0.16156,-0.181152,-0.562988,0.12,-0.18,-0.18,1.02,4.5,8.65,32
3.722654,1.1,4.27,8.77,-25.0625,11.8125,-11.3125,-24.75,-15.5625,-41.5,71.0,5.8125,-27.25,0.789978,0.160645,-0.179016,-0.563965,0.11,-0.19,0.1,0.99,4.46,8.67,32
3.732715,1.08,4.21,8.61,-28.875,14.75,-17.8125,-24.75,-15.5625,-41.5,71.1875,5.625,-26.9375,0.789734,0.159668,-0.176392,-0.565369,0.11,-0.21,-0.08,0.96,4.42,8.69,32
3.742777,1.08,4.21,8.61,-33.9375,19.0625,-23.9375,-23.25,-15.1875,-40.6875,71.375,5.3125,-26.625,0.789368,0.15863,-0.173218,-0.567261,0.21,-0.29,-0.5,0.91,4.38,8.72,32
3.752838,1.13,4.08,8.22,-33.9375,19.0625,-23.9375,-23.25,-15.1875,-40.6875,71.5625,5.0,-26.375,0.788818,0.158081,-0.1698,-0.569153,0.26,-0.32,-0.7,0.86,4.34,8.75,32
3.762899,0.98,4.0,8.02,-17.0625,25.5625,-26.3125,-23.25,-15.1875,-40.6875,71.8125,4.6875,-26.1875,0.788147,0.158569,-0.166931,-0.570801,0.18,-0.31,-0.74,0.8,4.31,8.76,32
3.77296,1.04,3.87,8.06,2.0625,24.5,-25.75,-23.25,-15.1875,-40.6875,72.0,4.375,-26.25,0.787231,0.160278,-0.165039,-0.572144,0.29,-0.44,-0.7,0.74,4.32,8.76,32
3.783022,1.0,3.84,8.3,17.875,22.5625,-25.9375,-23.25,-15.1875,-40.6875,72.1875,4.0625,-26.4375,0.786011,0.162903,-0.164062,-0.573303,0.3,-0.5,-0.45,0.69,4.35,8.75,32
3.793083,1.0,3.84,8.3,17.875,22.5625,-25.9375,-23.25,-15.1875,-40.6875,72.375,3.75,-26.6875,0.784607,0.166138,-0.163635,-0.574463,0.19,-0.48,-0.55,0.64,4.4,8.74,32
3.803144,0.84,3.91,8.19,27.875,21.3125,-26.125,-21.75,-15.1875,-41.875,72.5625,3.4375,-27.0625,0.783081,0.169861,-0.163391,-0.5755,0.08,-0.42,-0.35,0.59,4.45,8.71,32
3.813205,0.49,4.22,8.17,39.8125,24.5625,-31.625,-21.75,-15.1875,-41.875,72.8125,3.0625,-27.4375,0.781311,0.174133,-0.163269,-0.57666,-0.04,-0.28,-0.51,0.53,4.51,8.68,32
3.823266,0.54,4.28,7.8,41.4375,26.625,-35.8125,-21.75,-15.1875,-41.875,73.125,2.6875,-27.8125,0.779297,0.17865,-0.163025,-0.578064,0.08,-0.29,-0.85,0.46,4.57,8.65,32
3.833328,0.6,4.45,7.74,44.25,28.0625,-39.3125,-21.75,-15.1875,-41.875,73.375,2.25,-28.25,0.7771,0.183472,-0.16272,-0.579651,0.2,-0.19,-0.88,0.39,4.64,8.62,32
3.843389,0.44,4.94,8.73,49.25,27.75,-39.9375,-19.5625,-16.6875,-42.6875,73.75,1.875,-28.75,0.774475,0.188538,-0.162781,-0.581482,0.12,0.22,0.14,0.32,4.72,8.58,32
3.85345,0.53,4.96,9.02,50.125,25.5625,-38.5,-19.5625,-16.6875,-42.6875,74.0625,1.4375,-29.25,0.772156,0.193604,-0.162964,-0.582886,0.28,0.16,0.47,0.25,4.79,8.55,32
3.863511,0.43,5.07,8.72,36.8125,22.6875,-35.75,-19.5625,-16.6875,-42.6875,74.375,1.0625,-29.625,0.770081,0.197632,-0.162659,-0.584351,0.24,0.22,0.2,0.19,4.84,8.52,32
3.873573,0.28,5.08,7.9,18.5,20.125,-32.1875,-19.5625,-16.6875,-42.6875,74.625,0.75,-29.8125,0.768433,0.200256,-0.161743,-0.585815,0.14,0.2,-0.59,0.13,4.87,8.5,32
3.883634,0.3,5.11,8.19,15.0625,21.125,-29.6875,-19.5625,-16.6875,-42.6875,74.8125,0.4375,-29.9375,0.767029,0.202698,-0.160645,-0.587219,0.22,0.21,-0.29,0.08,4.89,8.49,32
3.893695,0.48,4.92,7.97,18.5625,24.8125,-27.5625,-19.1875,-19.25,-41.875,75.3125,0.125,-30.125,0.764343,0.205139,-0.159912,-0.590027,0.45,0.0,-0.5,0.02,4.92,8.47,32
3.903756,0.33,4.96,7.91,16.875,23.5,-23.1875,-19.1875,-19.25,-41.875,75.4375,-0.125,-30.3125,0.763184,0.207703,-0.158813,-0.590881,0.36,0.01,-0.55,-0.02,4.95,8.46,32
3.913817,0.27,5.11,8.67,24.625,23.1875,-19.375,-19.1875,-19.25,-41.875,75.5625,-0.4375,-30.5,0.762085,0.210754,-0.158203,-0.59137,0.35,0.13,0.22,-0.07,4.98,8.44,32
3.923879,0.27,5.13,8.64,26.5,20.9375,-17.5,-19.1875,-19.25,-41.875,75.6875,-0.6875,-30.75,0.761047,0.213745,-0.157898,-0.591797,0.39,0.11,0.22,-0.12,5.02,8.42,32
3.93394,0.35,5.16,8.47,20.125,15.5,-16.5625,-19.1875,-19.25,-41.875,75.8125,-0.875,-31.0,0.760071,0.216003,-0.157593,-0.592285,0.51,0.1,0.07,-0.16,5.05,8.4,32
3.944001,0.38,5.24,8.52,14.8125,10.75,-15.0,-16.5625,-19.6875,-43.875,75.875,-1.0625,-31.125,0.759521,0.217773,-0.157227,-0.592468,0.57,0.17,0.13,-0.18,5.07,8.39,32
3.954062,0.27,5.18,8.49,10.4375,7.8125,-11.9375,-16.5625,-19.6875,-43.875,76.0,-1.1875,-31.1875,0.758789,0.218994,-0.157043,-0.592957,0.48,0.09,0.11,-0.2,5.08,8.38,32
3.964124,0.26,5.04,8.49,5.9375,6.625,-8.5625,-16.5625,-19.6875,-43.875,76.0625,-1.3125,-31.25,0.758362,0.219849,-0.156799,-0.593262,0.49,-0.05,0.11,-0.22,5.09,8.37,32
3.974185,0.22,4.89,8.47,4.125,5.75,-5.9375,-16.5625,-19.6875,-43.875,76.0625,-1.3125,-31.3125,0.758118,0.220215,-0.156677,-0.593445,0.45,-0.2,0.1,-0.23,5.09,8.37,32
3.984246,0.18,4.75,8.45,5.625,3.625,-4.6875,-16.5625,-19.6875,-43.875,76.125,-1.375,-31.375,0.757812,0.220825,-0.156677,-0.593628,0.42,-0.34,0.08,-0.24,5.1,8.36,32
3.994307,0.18,4.75,8.45,9.875,0.0625,-5.625,-16.375,-20.75,-41.5,76.25,-1.4375,-31.4375,0.756958,0.221436,-0.157227,-0.59436,0.48,-0.47,0.36,-0.24,5.12,8.36,32
4.004369,0.23,4.64,8.72,14.3125,-1.5,-8.0,-16.375,-20.75,-41.5,76.3125,-1.4375,-31.5625,0.756287,0.222412,-0.157837,-0.594666,0.49,-0.4,0.49,-0.25,5.14,8.34,32
4.01443,0.24,4.83,8.71,15.75,-1.0625,-10.875,-16.375,-20.75,-41.5,76.4375,-1.5,-31.75,0.755432,0.223511,-0.158508,-0.595215,0.5,-0.33,0.38,-0.26,5.16,8.33,32
4.024491,0.21,4.97,8.75,17.3125,-2.125,-13.0,-16.375,-20.75,-41.5,76.5625,-1.5625,-31.875,0.754395,0.22467,-0.159302,-0.595825,0.48,-0.21,0.44,-0.26,5.18,8.31,32
4.034552,0.24,5.16,9.31,22.3125,-4.5625,-14.25,-16.375,-20.75,-41.5,76.75,-1.5625,-32.125,0.753235,0.226013,-0.1604,-0.596497,0.52,-0.05,1.01,-0.27,5.21,8.29,32
4.044613,0.24,5.16,9.31,19.5,-8.4375,-14.375,-15.6875,-21.75,-43.5,76.875,-1.5625,-32.3125,0.752014,0.227051,-0.161682,-0.597351,0.5,0.01,0.96,-0.27,5.24,8.28,32
4.054675,0.23,5.26,9.24,7.375,-12.8125,-12.0625,-15.6875,-21.75,-43.5,77.0625,-1.5625,-32.375,0.751038,0.227051,-0.162659,-0.598267,0.49,-0.04,0.78,-0.26,5.25,8.27,32
4.064736,0.24,5.13,8.83,-3.5625,-18.3125,-9.4375,-15.6875,-21.75,-43.5,77.1875,-1.4375,-32.3125,0.750427,0.226013,-0.163452,-0.599243,0.49,-0.11,0.55,-0.25,5.24,8.28,32
4.074797,0.07,5.11,8.32,-10.6875,-23.125,-7.0,-15.6875,-21.75,-43.5,77.3125,-1.3125,-32.25,0.749939,0.224243,-0.164246,-0.600281,0.3,-0.11,0.03,-0.22,5.23,8.29,32
4.084858,0.04,5.16,8.05,-13.375,-25.125,-6.375,-15.6875,-21.75,-43.5,77.4375,-1.125,-32.0625,0.749512,0.222229,-0.165039,-0.601379,0.23,-0.04,-0.24,-0.19,5.21,8.3,32
4.09492,0.04,5.16,8.05,-13.375,-25.125,-6.375,-16.375,-22.1875,-41.5,77.6875,-0.9375,-31.9375,0.748596,0.220032,-0.165955,-0.603027,0.24,0.03,-0.45,-0.16,5.19,8.31,32
4.104981,0.07,5.22,7.85,-14.0,-25.4375,-7.0,-16.375,-22.1875,-41.5,77.8125,-0.8125,-31.8125,0.748108,0.218201,-0.166687,-0.604065,0.24,0.1,-0.52,-0.13,5.17,8.32,32
4.115042,0.14,5.41,7.67,-10.875,-19.1875,-6.5625,-16.375,-22.1875,-41.5,77.9375,-0.6875,-31.75,0.747742,0.216614,-0.167236,-0.60498,0.25,0.25,-0.66,-0.11,5.16,8.33,32
4.125103,0.18,5.39,7.66,-10.9375,-14.9375,-4.8125,-16.375,-22.1875,-41.5,78.0,-0.5625,-31.625,0.747498,0.21521,-0.16748,-0.605713,0.29,0.25,-0.68,-0.1,5.14,8.34,32
4.135164,0.09,5.35,7.59,-11.125,-10.8125,-2.6875,-16.375,-22.1875,-41.5,78.0625,-0.5,-31.5,0.747375,0.213989,-0.167542,-0.606262,0.18,0.22,-0.76,-0.08,5.12,8.35,32
4.145226,0.09,5.35,7.59,-11.125,-10.8125,-2.6875,-16.375,-21.0625,-41.0625,78.0625,-0.4375,-31.375,0.747437,0.212891,-0.167358,-0.606628,0.25,-0.08,-1.0,-0.07,5.11,8.36,32
4.155287,0.17,5.02,7.36,-12.375,-6.875,-0.875,-16.375,-21.0625,-41.0625,78.0625,-0.375,-31.25,0.747742,0.211792,-0.166931,-0.60675,0.23,-0.25,-1.13,-0.07,5.09,8.38,32
4.165348,0.1,4.7,7.36,-9.6875,0.3125,3.75,-16.375,-21.0625,-41.0625,78.0625,-0.375,-31.1875,0.748108,0.211121,-0.166504,-0.606628,0.17,-0.37,-1.02,-0.06,5.07,8.38,32
4.175409,0.14,4.55,7.56,-3.1875,5.1875,3.0,-16.375,-21.0625,-41.0625,78.0,-0.375,-31.125,0.748413,0.211121,-0.166077,-0.606384,0.22,-0.51,-0.82,-0.07,5.07,8.39,32
4.185471,0.04,4.48,7.88,0.4375,9.25,1.5,-16.375,-21.0625,-41.0625,77.9375,-0.4375,-31.125,0.748657,0.211609,-0.165466,-0.60614,0.13,-0.59,-0.5,-0.08,5.07,8.39,32
4.195532,0.07,4.46,8.02,1.0625,11.4375,-1.1875,-17.5,-21.0625,-41.875,77.9375,-0.5625,-31.125,0.748718,0.21228,-0.164795,-0.605957,0.17,-0.6,-0.36,-0.1,5.07,8.39,32
4.205593,0.1,4.51,8.0,-1.375,12.5625,-4.5625,-17.5,-21.0625,-41.875,77.9375,-0.6875,-31.125,0.748657,0.212891,-0.163879,-0.606079,0.23,-0.55,-0.38,-0.12,5.07,8.39,32
4.215654,0.11,4.58,7.86,-5.3125,13.375,-7.75,-17.5,-21.0625,-41.875,78.0,-0.875,-31.0625,0.748535,0.213379,-0.162598,-0.606384,0.26,-0.48,-0.52,-0.15,5.06,8.39,32
4.225716,0.16,4.74,7.77,-5.8125,13.625,-10.3125,-17.5,-21.0625,-41.875,78.0625,-1.0,-31.0,0.748291,0.213806,-0.161255,-0.606873,0.33,-0.3,-0.62,-0.17,5.05,8.4,32
4.235777,0.18,4.84,7.82,-2.3125,13.625,-11.9375,-17.5,-21.0625,-41.875,78.125,-1.1875,-31.0,0.747925,0.214539,-0.160034,-0.607422,0.39,-0.21,-0.57,-0.2,5.05,8.4,32
4.245838,0.15,4.93,7.89,1.125,14.1875,-12.5625,-17.75,-20.0,-41.875,78.1875,-1.375,-31.0,0.747681,0.215576,-0.158875,-0.607666,0.39,-0.11,-0.5,-0.23,5.05,8.4,32
4.255899,0.21,5.05,8.13,0.625,14.4375,-12.0,-17.75,-20.0,-41.875,78.25,-1.5625,-31.0,0.747253,0.216492,-0.157776,-0.608154,0.48,0.0,-0.26,-0.26,5.05,8.39,32
4.26596,0.65,6.26,8.12,-14.9375,7.9375,-8.3125,-17.75,-20.0,-41.875,78.3125,-1.625,-30.875,0.747192,0.216064,-0.156372,-0.608704,0.94,1.22,-0.28,-0.28,5.03,8.41,32
4.276022,0.02,4.98,6.72,-88.9375,-23.3125,6.25,-17.75,-20.0,-41.875,78.3125,-1.4375,-30.0,0.74884,0.209167,-0.153381,-0.609863,0.27,0.07,-1.75,-0.24,4.9,8.48,32
4.286083,0.29,4.66,8.31,-76.5,-31.5,17.4375,-17.75,-20.0,-41.875,78.1875,-1.0625,-29.25,0.750671,0.202515,-0.151733,-0.610352,0.48,-0.12,-0.23,-0.19,4.79,8.55,32
4.296144,0.29,4.66,8.31,-50.75,-30.625,21.75,-16.375,-21.5,-42.25,78.0625,-0.6875,-28.75,0.752136,0.197388,-0.151428,-0.610229,0.26,-0.62,-1.1,-0.12,4.72,8.59,32
4.306205,0.13,4.1,7.48,-31.4375,-24.375,19.5625,-16.375,-21.5,-42.25,77.9375,-0.4375,-28.4375,0.753357,0.193848,-0.151733,-0.609802,0.32,-0.53,-0.69,-0.07,4.67,8.61,32
4.316267,0.32,4.11,7.88,-18.375,-16.3125,15.0625,-16.375,-21.5,-42.25,77.8125,-0.1875,-28.3125,0.754211,0.19165,-0.152039,-0.609314,0.36,-0.53,-0.74,-0.04,4.65,8.63,32
4.326328,0.21,3.93,7.84,-12.6875,-10.75,10.875,-16.375,-21.5,-42.25,77.75,-0.0625,-28.1875,0.754883,0.190186,-0.152283,-0.608948,0.23,-0.69,-0.8,-0.01,4.63,8.64,32
4.336389,-0.38,4.1,7.11,-9.8125,-6.6875,6.0,-16.375,-21.5,-42.25,77.6875,0.0,-28.0625,0.755249,0.189087,-0.152283,-0.608826,-0.38,-0.51,-1.53,0.0,4.61,8.65,32
4.34645,0.24,3.52,7.81,-12.375,2.9375,-0.625,-17.5,-19.25,-43.0625,77.6875,0.0,-27.9375,0.755432,0.188477,-0.151428,-0.608948,0.25,-1.07,-0.84,0.0,4.6,8.66,32
4.356511,0.24,3.52,7.81,-28.5,6.625,3.6875,-17.5,-19.25,-43.0625,77.6875,-0.0625,-27.6875,0.756165,0.186951,-0.149597,-0.609009,0.09,-0.99,-2.0,-0.01,4.55,8.68,32
4.366573,0.29,3.46,6.74,-35.1875,-1.375,3.125,-17.5,-19.25,-43.0625,77.625,0.0,-27.3125,0.756897,0.18457,-0.147949,-0.609253,0.3,-1.04,-1.96,0.0,4.5,8.7,32
4.376634,0.44,3.41,7.13,-30.4375,-14.5625,1.0625,-17.5,-19.25,-43.0625,77.6875,0.0625,-27.0625,0.757202,0.181885,-0.147339,-0.609802,0.43,-1.04,-1.6,0.01,4.46,8.73,32
4.386695,0.37,3.51,6.99,-29.9375,-24.5,-0.5,-17.5,-19.25,-43.0625,77.6875,0.25,-26.75,0.757385,0.178711,-0.147339,-0.610535,0.32,-0.9,-1.75,0.04,4.41,8.75,32
4.396756,0.37,3.51,6.99,-29.9375,-24.5,-0.5,-17.75,-18.875,-43.5,77.8125,0.5625,-26.4375,0.757263,0.174805,-0.148071,-0.611572,0.17,-0.81,0.67,0.1,4.37,8.77,32
4.406818,0.28,3.56,9.44,-30.9375,-36.8125,-1.1875,-17.75,-18.875,-43.5,77.9375,0.875,-26.25,0.756897,0.171387,-0.149414,-0.612732,0.39,-0.83,0.21,0.15,4.34,8.79,32
4.416879,0.97,3.86,9.4,-14.75,-27.0625,-9.8125,-17.75,-18.875,-43.5,78.125,1.0625,-26.125,0.756226,0.169189,-0.150269,-0.613892,0.78,-0.45,0.59,0.19,4.31,8.8,32
4.42694,1.11,3.99,8.8,-7.75,-28.4375,-10.25,-17.75,-18.875,-43.5,78.25,1.3125,-26.0,0.755432,0.167358,-0.15155,-0.615051,0.88,-0.31,0.0,0.22,4.3,8.8,32
4.437001,1.29,4.03,8.75,2.625,-30.4375,-7.0625,-17.75,-18.875,-43.5,78.4375,1.5,-26.0625,0.754639,0.166016,-0.153503,-0.615906,1.02,-0.28,-0.04,0.26,4.31,8.8,32
4.447063,1.29,4.03,8.75,16.0,-36.4375,-1.75,-17.75,-17.5,-43.5,78.5,1.8125,-26.25,0.753845,0.165161,-0.156616,-0.616333,1.17,-0.35,-0.17,0.31,4.33,8.79,32
4.457124,1.49,3.98,8.61,16.0,-36.4375,-1.75,-17.75,-17.5,-43.5,78.5,2.1875,-26.5,0.753296,0.164673,-0.160706,-0.61615,0.82,-0.28,-0.32,0.38,4.37,8.76,32
4.467185,1.1,4.38,8.57,29.125,-39.5,14.9375,-17.75,-17.5,-43.5,78.5,2.625,-26.75,0.753113,0.164246,-0.164917,-0.615356,0.65,-0.02,-0.16,0.45,4.41,8.74,32
4.477246,1.03,4.39,8.53,22.25,-32.875,17.9375,-17.75,-17.5,-43.5,78.375,3.0,-27.0,0.753296,0.163696,-0.168457,-0.614319,0.51,-0.05,-0.19,0.51,4.44,8.72,32
4.487307,0.99,4.43,8.35,6.5625,-23.1875,17.3125,-17.75,-17.5,-43.5,78.25,3.25,-27.0625,0.753723,0.162659,-0.170471,-0.613464,0.43,-0.02,-0.35,0.56,4.45,8.71,32
4.497369,0.99,4.43,8.35,6.5625,-23.1875,17.3125,-19.0,-17.5,-41.875,78.1875,3.4375,-26.9375,0.754272,0.160889,-0.171082,-0.613098,0.28,-0.14,-0.39,0.59,4.43,8.72,32
4.50743,0.87,4.28,8.32,-11.6875,-14.1875,15.375,-19.0,-17.5,-41.875,78.0625,3.5625,-26.625,0.75531,0.158325,-0.169922,-0.612854,0.23,-0.12,-0.5,0.61,4.38,8.74,32
4.517491,0.97,4.24,8.15,-47.875,-4.4375,11.25,-19.0,-17.5,-41.875,78.0,3.625,-26.125,0.75647,0.154846,-0.167847,-0.612854,0.34,-0.06,-0.62,0.62,4.31,8.78,32
4.527552,1.02,4.09,7.91,-47.625,-10.75,11.6875,-19.0,-17.5,-41.875,77.9375,3.8125,-25.6875,0.757507,0.151123,-0.16626,-0.612915,0.37,-0.14,-0.89,0.65,4.24,8.81,32
4.537614,0.83,3.52,7.8,-34.125,-21.625,13.3125,-19.0,-17.5,-41.875,77.875,4.0625,-25.3125,0.758362,0.147583,-0.166016,-0.612854,0.14,-0.66,-1.03,0.69,4.19,8.83,32
4.547675,0.59,3.7,8.18,-12.875,-28.0625,12.25,-20.75,-17.75,-43.0625,77.8125,4.3125,-25.1875,0.758789,0.145142,-0.167297,-0.612549,-0.14,-0.46,-0.65,0.74,4.17,8.84,32
4.557736,0.72,4.05,8.55,-2.5,-28.8125,6.0625,-20.75,-17.75,-43.0625,77.8125,4.625,-25.1875,0.758728,0.143433,-0.169067,-0.612549,-0.07,-0.1,-0.28,0.79,4.16,8.84,32
4.567797,0.9,4.27,8.96,-8.375,-26.1875,-0.375,-20.75,-17.75,-43.0625,77.875,4.8125,-25.125,0.758423,0.141541,-0.170349,-0.612976,0.07,0.12,0.11,0.83,4.15,8.84,32
4.577858,1.03,4.3,9.02,-22.625,-23.625,-4.5,-20.75,-17.75,-43.0625,77.9375,5.0,-24.9375,0.758118,0.138916,-0.170654,-0.613892,0.17,0.18,0.17,0.86,4.11,8.85,32
4.58792,1.16,3.97,8.23,-36.3125,-27.5625,-4.9375,-20.75,-17.75,-43.0625,78.0625,5.25,-24.5625,0.757874,0.135193,-0.170471,-0.615051,0.26,-0.09,-0.64,0.9,4.06,8.87,32
4.597981,1.19,3.88,8.13,-32.0,-34.3125,-3.875,-22.25,-16.6875,-41.875,78.3125,5.5625,-24.3125,0.757019,0.131287,-0.171082,-0.616821,0.24,-0.13,-0.75,0.95,4.01,8.89,32
4.608042,1.3,3.74,7.53,-17.25,-35.0,-6.125,-22.25,-16.6875,-41.875,78.4375,5.8125,-24.125,0.756348,0.128418,-0.172302,-0.617859,0.3,-0.24,-1.36,0.99,3.99,8.9,32
4.618103,1.26,3.76,8.35,-9.625,-28.875,-8.75,-22.25,-16.6875,-41.875,78.625,6.0625,-24.0625,0.755554,0.126465,-0.173584,-0.618835,0.22,-0.21,-0.54,1.03,3.98,8.9,32
4.628165,1.11,3.89,8.77,-14.6875,-18.5,-8.625,-22.25,-16.6875,-41.875,78.75,6.1875,-23.9375,0.755005,0.124695,-0.173889,-0.619812,0.05,-0.06,-0.13,1.05,3.96,8.9,32
4.638226,1.18,4.13,9.1,-31.5,-5.25,-6.875,-22.25,-16.6875,-41.875,78.8125,6.1875,-23.625,0.754883,0.122498,-0.172485,-0.620789,0.11,0.22,0.17,1.06,3.91,8.92,32
4.648287,1.18,4.13,9.1,-54.25,7.3125,-5.5,-21.5,-14.75,-41.875,78.875,6.125,-23.125,0.755493,0.119568,-0.169067,-0.621521,0.07,0.1,-0.28,1.04,3.83,8.96,32
4.658348,1.11,3.93,8.67,-76.125,16.9375,-5.0,-21.5,-14.75,-41.875,78.9375,5.9375,-22.375,0.756226,0.115662,-0.16394,-0.622803,-0.27,-0.15,-0.66,1.01,3.71,9.01,32
4.66841,0.48,3.31,8.27,-83.875,21.6875,-6.3125,-21.5,-14.75,-41.875,79.0,5.6875,-21.5625,0.757019,0.111511,-0.158081,-0.624084,-0.5,-0.27,-0.79,0.98,3.59,9.07,32
4.678471,0.83,3.45,8.62,-77.75,20.0,-7.25,-21.5,-14.75,-41.875,79.0625,5.5,-20.8125,0.757629,0.107666,-0.152649,-0.625427,-0.11,-0.02,-0.49,0.94,3.47,9.12,32
4.688532,1.07,3.45,8.85,-66.8125,19.625,-9.625,-21.5,-14.75,-41.875,79.125,5.3125,-20.1875,0.757935,0.104553,-0.147766,-0.626709,0.15,0.08,-0.3,0.91,3.37,9.16,32
4.698593,1.07,3.45,8.85,-60.5,27.625,-15.5625,-22.6875,-14.5,-43.0625,79.25,5.0,-19.5625,0.758179,0.102417,-0.142639,-0.627991,-0.13,-0.01,-0.04,0.85,3.27,9.2,32
4.708654,0.72,3.25,9.15,-69.0625,42.1875,-25.0625,-22.6875,-14.5,-43.0625,79.4375,4.5,-18.9375,0.757935,0.100525,-0.136047,-0.630066,-0.08,0.0,0.15,0.77,3.17,9.24,32
4.718716,0.68,3.34,9.63,-90.4375,58.125,-35.9375,-22.6875,-14.5,-43.0625,79.75,3.875,-18.0625,0.757385,0.098206,-0.127197,-0.632874,0.01,0.3,0.33,0.67,3.03,9.3,32
4.728777,0.56,3.26,9.63,-116.25,69.1875,-43.875,-22.6875,-14.5,-43.0625,80.0625,3.125,-16.9375,0.756714,0.094971,-0.11615,-0.636292,0.02,0.41,0.27,0.53,2.85,9.36,32
4.738838,0.37,3.06,9.23,-137.875,71.5,-46.8125,-22.6875,-14.5,-43.0625,80.5,2.3125,-15.625,0.75592,0.090454,-0.10376,-0.640015,-0.03,0.42,-0.2,0.4,2.64,9.43,32
4.748899,0.37,3.06,9.23,-141.5625,65.5625,-45.125,-20.0,-11.1875,-44.25,80.75,1.625,-14.25,0.755737,0.085388,-0.091492,-0.642761,-0.05,0.23,-0.84,0.27,2.41,9.49,32
4.758961,0.22,2.65,8.65,-120.75,55.6875,-44.3125,-20.0,-11.1875,-44.25,81.125,1.0,-13.125,0.754578,0.081055,-0.081055,-0.646118,-0.23,-0.04,-1.17,0.17,2.22,9.54,32
4.769022,0.58,2.31,10.5,-85.3125,45.3125,-45.25,-20.0,-11.1875,-44.25,81.5,0.4375,-12.25,0.752991,0.07843,-0.073181,-0.649231,0.49,0.22,0.92,0.08,2.09,9.58,32
4.779083,0.74,2.55,11.95,-58.8125,36.5,-44.6875,-20.0,-11.1875,-44.25,81.875,0.0,-11.6875,0.75116,0.076965,-0.067383,-0.652161,0.74,0.56,2.35,0.0,1.99,9.6,32
4.789144,-0.07,1.66,10.41,-76.8125,22.9375,-36.375,-20.0,-11.1875,-44.25,82.25,-0.1875,-10.9375,0.749756,0.073547,-0.061401,-0.654785,-0.03,-0.2,0.79,-0.04,1.87,9.62,32
4.799205,-0.07,1.66,10.41,-76.8125,22.9375,-36.375,-17.75,-6.375,-46.25,82.1875,-0.375,-10.125,0.75061,0.069031,-0.055603,-0.654785,0.11,0.04,1.06,-0.06,1.72,9.65,32
4.809267,0.05,1.77,10.71,-86.0,9.5,-36.375,-17.75,-6.375,-46.25,82.5625,-0.4375,-9.25,0.748901,0.063477,-0.050476,-0.657715,0.92,0.29,0.84,-0.07,1.58,9.67,32
4.819328,1.17,1.16,9.55,-98.0625,-7.5625,-39.25,-17.75,-6.375,-46.25,82.9375,-0.375,-8.3125,0.747192,0.057007,-0.045288,-0.660645,1.25,-0.25,-0.14,-0.07,1.42,9.7,32
4.829389,0.98,0.91,9.32,-81.875,-9.875,-37.4375,-17.75,-6.375,-46.25,83.3125,-0.375,-7.5,0.745422,0.051392,-0.041199,-0.66333,1.05,-0.37,-0.39,-0.06,1.28,9.72,32
4.83945,0.71,0.58,9.77,-60.625,-6.375,-36.5,-17.75,-6.375,-46.25,83.625,-0.3125,-6.9375,0.743591,0.047363,-0.038025,-0.665833,0.77,-0.59,0.04,-0.06,1.18,9.73,32
4.849512,0.71,0.58,9.77,-60.625,-6.375,-36.5,-17.0625,-3.875,-46.375,83.6875,-0.4375,-6.375,0.74353,0.04425,-0.034485,-0.666382,0.82,-0.38,-2.22,-0.07,1.09,9.74,32
4.859573,0.75,0.7,7.52,-55.4375,2.625,-36.875,-17.0625,-3.875,-46.375,84.0625,-0.625,-6.0625,0.741638,0.04303,-0.031433,-0.668701,0.72,-0.6,-5.36,-0.1,1.03,9.75,32
4.869634,-0.47,-0.07,3.47,49.375,21.5625,-35.4375,-17.0625,-3.875,-46.375,84.375,-0.8125,-6.5,0.739502,0.047424,-0.032715,-0.670715,-0.32,-1.19,-6.26,-0.14,1.11,9.74,32
4.879695,-1.17,1.79,4.15,200.875,13.625,-44.75,-17.0625,-3.875,-46.375,84.8125,-1.0,-8.4375,0.736084,0.060852,-0.043091,-0.672791,-0.98,0.35,-5.54,-0.18,1.44,9.69,32
4.889757,-1.5,2.55,4.44,345.0,13.4375,-65.0625,-17.0625,-3.875,-46.375,85.5,-1.25,-11.75,0.730347,0.083252,-0.061462,-0.675232,-1.27,0.54,-5.15,-0.22,2.0,9.59,32
4.899818,-1.5,2.55,4.44,345.0,13.4375,-65.0625,-17.0625,-3.875,-46.375,86.3125,-1.6875,-16.0625,0.721924,0.112427,-0.084412,-0.67749,-0.99,0.91,-4.26,-0.29,2.71,9.41,32
4.909879,-1.29,3.62,5.15,442.6875,26.3125,-85.5625,-16.6875,-2.6875,-47.5625,87.375,-2.375,-21.0,0.710632,0.146423,-0.110718,-0.679199,-0.7,1.32,-3.71,-0.4,3.51,9.14,32
4.91994,-0.8,5.9,4.06,567.125,33.5,-115.8125,-16.6875,-2.6875,-47.5625,88.5625,-3.125,-26.4375,0.696472,0.183228,-0.139648,-0.679626,-0.27,1.53,-4.69,-0.53,4.36,8.76,32
4.930001,4.26,7.85,7.43,622.625,22.75,-114.125,-16.6875,-2.6875,-47.5625,89.8125,-3.8125,-32.375,0.679565,0.222229,-0.171997,-0.677673,4.92,2.6,-0.81,-0.66,5.24,8.25,32
4.940063,-1.15,4.27,-20.48,450.25,-29.875,-57.5625,-16.6875,-2.6875,-47.5625,90.625,-3.9375,-36.6875,0.66687,0.247009,-0.198303,-0.6745,-0.47,-1.57,-28.32,-0.67,5.85,7.83,32
4.950124,-0.57,-1.39,-4.21,-194.4375,-44.625,27.25,-14.875,-17.1875,-43.1875,90.4375,-3.375,-34.8125,0.671631,0.233032,-0.190247,-0.677063,0.01,-6.99,-12.24,-0.58,5.59,8.03,32
4.960185,0.97,6.95,-3.67,33.3125,-14.5,-13.75,-14.875,-17.1875,-43.1875,90.625,-3.375,-35.125,0.669983,0.234314,-0.192688,-0.677551,1.56,1.31,-11.67,-0.58,5.63,8.0,32
4.970246,-1.41,6.15,5.68,-108.25,-22.9375,6.5,-14.875,-17.1875,-43.1875,90.5625,-3.125,-34.0625,0.672058,0.226746,-0.187927,-0.679382,-0.87,0.65,-2.41,-0.54,5.49,8.1,32
4.980308,-0.82,6.04,7.29,-163.1875,-13.75,-26.0625,-14.875,-17.1875,-43.1875,90.8125,-3.1875,-32.5,0.673401,0.217041,-0.178833,-0.683655,-0.27,0.78,-0.96,-0.54,5.26,8.25,32
4.990369,0.39,6.09,7.11,-154.3125,-29.1875,-24.875,-14.875,-17.1875,-43.1875,91.125,-3.0625,-31.0,0.674316,0.20697,-0.171143,-0.687866,0.91,1.05,-1.27,-0.52,5.04,8.39,32
5.00043,2.25,4.21,8.57,-147.5625,-38.625,-10.125,-14.1875,-27.0625,-40.375,91.25,-2.8125,-29.5625,0.67572,0.196411,-0.164551,-0.691223,2.73,-0.61,0.05,-0.48,4.83,8.51,32
5.010491,2.19,4.15,8.34,-143.75,-21.5,9.4375,-14.1875,-27.0625,-40.375,91.1875,-2.5625,-28.125,0.678284,0.186829,-0.157532,-0.692993,2.63,-0.47,-0.29,-0.44,4.62,8.63,32
5.020552,0.87,4.61,8.05,-151.4375,2.625,26.6875,-14.1875,-27.0625,-40.375,90.875,-2.4375,-26.6875,0.68219,0.177917,-0.148926,-0.693359,1.3,0.21,-0.69,-0.42,4.4,8.75,32
5.030614,0.64,4.31,8.26,-164.4375,23.125,39.625,-14.1875,-27.0625,-40.375,90.4375,-2.5,-25.125,0.687256,0.169312,-0.13855,-0.692749,1.07,0.15,-0.6,-0.43,4.16,8.86,32
5.040675,0.26,3.09,8.65,-177.0625,33.6875,41.1875,-14.1875,-27.0625,-40.375,89.9375,-2.625,-23.4375,0.692505,0.160522,-0.12677,-0.691833,0.71,-0.8,-0.32,-0.45,3.9,8.98,32
5.050736,-0.8,3.29,8.5,-185.5625,37.125,36.1875,-14.5,-21.1875,-43.5625,89.4375,-2.8125,-21.6875,0.697449,0.151428,-0.114258,-0.691101,-0.31,-0.32,-0.59,-0.48,3.61,9.1,32
5.060797,-0.83,3.21,8.74,-196.4375,24.5,40.4375,-14.5,-21.1875,-43.5625,88.9375,-2.9375,-19.75,0.702454,0.140869,-0.101868,-0.690186,-0.32,-0.1,-0.47,-0.5,3.31,9.21,32
5.070859,-1.03,3.11,8.77,-200.0625,6.0625,34.6875,-14.5,-21.1875,-43.5625,88.5625,-2.875,-17.875,0.706787,0.129028,-0.09021,-0.689697,-0.54,0.1,-0.54,-0.49,3.0,9.32,32
5.08092,0.32,3.97,9.86,-184.625,-0.5,18.8125,-14.5,-21.1875,-43.5625,88.3125,-2.8125,-16.0625,0.709778,0.117859,-0.079651,-0.68988,0.8,1.25,0.45,-0.48,2.71,9.4,32
5.090981,0.06,2.44,9.46,-103.125,27.8125,-14.625,-14.5,-21.1875,-43.5625,88.4375,-3.125,-15.0625,0.710144,0.113342,-0.071838,-0.691162,0.6,-0.11,0.01,-0.53,2.55,9.45,32
5.101042,0.06,2.44,9.46,-54.25,26.5625,-8.5625,-14.875,-13.0625,-45.1875,88.4375,-3.375,-14.5625,0.710327,0.111694,-0.066956,-0.691711,-0.56,-1.24,0.36,-0.58,2.46,9.47,32
5.111104,-1.15,1.21,9.83,-46.8125,10.25,-1.5625,-14.875,-13.0625,-45.1875,88.4375,-3.5,-14.125,0.710693,0.109497,-0.063599,-0.692017,-0.35,-1.0,0.05,-0.59,2.38,9.49,32
5.121165,-0.25,2.03,9.19,-47.875,12.1875,-7.4375,-14.875,-13.0625,-45.1875,88.5,-3.625,-13.625,0.710754,0.107422,-0.059998,-0.692566,0.37,-0.27,-0.31,-0.62,2.31,9.5,32
5.131226,-0.16,2.27,9.38,-57.5,18.5,-7.5,-14.875,-13.0625,-45.1875,88.5,-3.8125,-13.0625,0.710938,0.105042,-0.055481,-0.693115,0.49,0.05,-0.14,-0.65,2.21,9.52,32
5.141287,-0.4,2.07,9.19,-65.0625,24.8125,-3.6875,-14.875,-13.0625,-45.1875,88.5,-4.0625,-12.4375,0.711426,0.1026,-0.05011,-0.69342,0.29,-0.03,-0.36,-0.69,2.11,9.55,32
5.151348,-0.4,2.07,9.19,-79.1875,31.875,-3.5,-14.0625,-9.0625,-46.75,88.5,-4.375,-11.6875,0.712036,0.099731,-0.043518,-0.693665,-0.27,-0.16,-1.72,-0.74,1.98,9.57,32
5.16141,-1.02,1.81,7.84,-107.25,38.125,-10.0625,-14.0625,-9.0625,-46.75,88.5,-4.75,-10.625,0.712402,0.095581,-0.034851,-0.694336,-0.03,0.67,1.91,-0.81,1.81,9.6,32
5.171471,-0.31,2.17,9.24,-130.9375,18.4375,-7.6875,-14.0625,-9.0625,-46.75,88.5,-4.9375,-9.375,0.713074,0.088806,-0.026001,-0.695007,0.53,0.58,-0.39,-0.84,1.59,9.63,32
5.181532,-0.51,1.54,8.92,-142.875,29.1875,-10.625,-14.0625,-9.0625,-46.75,88.5,-5.1875,-8.0,0.713501,0.081909,-0.015747,-0.695679,0.37,0.18,-0.74,-0.89,1.36,9.67,32
5.191593,-0.19,0.57,8.71,-145.0,27.8125,-8.3125,-14.0625,-9.0625,-46.75,88.5,-5.5,-6.5625,0.713989,0.074829,-0.005493,-0.696106,0.74,-0.54,-0.97,-0.94,1.12,9.69,32
5.201655,-0.19,0.57,8.71,-145.0,27.8125,-8.3125,-13.0,-6.0625,-47.1875,88.5,-5.6875,-5.125,0.714539,0.0672,0.004517,-0.69635,0.93,-0.25,-1.01,-0.98,0.88,9.71,32
5.211716,-0.04,0.62,8.7,-147.5,21.4375,-6.0625,-13.0,-6.0625,-47.1875,88.4375,-5.8125,-3.75,0.715271,0.059265,0.013428,-0.696228,0.15,-0.28,-1.94,-0.99,0.64,9.73,32
5.221777,-1.16,-0.4,6.3,-138.1875,-4.875,5.1875,-13.0,-6.0625,-47.1875,88.3125,-5.75,-2.4375,0.716248,0.050659,0.02124,-0.695679,-0.17,-0.82,-3.43,-0.98,0.42,9.74,32
5.231838,-0.38,0.19,8.5,-106.375,-43.8125,6.25,-13.0,-6.0625,-47.1875,88.1875,-5.3125,-1.4375,0.717102,0.041626,0.024841,-0.695312,0.53,-0.05,-1.25,-0.91,0.24,9.76,32
5.241899,-0.46,0.55,15.84,-10.875,-90.1875,1.875,-13.0,-6.0625,-47.1875,88.1875,-4.4375,-1.3125,0.717407,0.035645,0.02002,-0.695435,0.3,0.33,6.06,-0.76,0.22,9.77,32
5.251961,-0.46,0.55,15.84,-10.875,-90.1875,1.875,-12.5625,-0.25,-49.1875,88.1875,-3.625,-1.125,0.717773,0.029297,0.015869,-0.695435,0.52,1.05,4.65,-0.62,0.19,9.78,32
5.262022,-0.1,1.24,14.43,-20.625,-87.5625,3.375,-12.5625,-0.25,-49.1875,88.25,-3.375,-0.9375,0.717285,0.026794,0.015625,-0.696106,2.4,-0.15,-0.87,-0.58,0.16,9.78,32
5.272083,0.12,-0.13,9.51,-0.1875,-3.875,-26.5625,-12.5625,-0.25,-49.1875,88.5,-3.375,-0.9375,0.715698,0.026489,0.015442,-0.697693,0.7,-0.3,-0.27,-0.57,0.16,9.78,32
5.282144,0.04,-0.13,9.53,0.125,-0.375,-21.375,-12.5625,-0.25,-49.1875,88.6875,-3.375,-0.875,0.714478,0.026489,0.015503,-0.698975,0.62,-0.28,-0.25,-0.58,0.15,9.78,32
5.292206,-0.34,-0.34,9.51,-0.125,0.4375,-7.0,-12.5625,-0.25,-49.1875,88.8125,-3.375,-0.875,0.71405,0.026489,0.015503,-0.699402,0.23,-0.5,-0.27,-0.58,0.15,9.78,32
5.302267,-0.34,-0.34,9.51,-0.125,0.4375,-7.0,-12.5625,-0.25,-49.1875,88.8125,-3.375,-0.875,0.713928,0.026489,0.015503,-0.699524,0.31,-0.2,-0.3,-0.58,0.15,9.78,32
5.312328,-0.26,-0.04,9.48,0.0625,0.3125,-1.75,-15.1875,2.25,-46.875,88.8125,-3.375,-0.875,0.713928,0.026489,0.015503,-0.699524,0.46,0.01,-0.31,-0.58,0.15,9.78,32
5.322389,-0.08,0.2,9.44,0.125,0.125,0.75,-15.1875,2.25,-46.875,88.8125,-3.375,-0.875,0.713989,0.026489,0.015503,-0.699463,0.49,0.04,-0.34,-0.58,0.15,9.78,32
5.332451,-0.12,0.2,9.53,0.0625,-0.1875,4.125,-15.1875,2.25,-46.875,88.75,-3.375,-0.875,0.714233,0.026489,0.015503,-0.699219,0.45,0.04,-0.25,-0.58,0.15,9.78,32
5.342512,-0.16,0.17,9.5,0.25,-0.4375,5.0,-15.1875,2.25,-46.875,88.6875,-3.375,-0.875,0.714539,0.026489,0.015503,-0.698914,0.41,0.01,-0.28,-0.58,0.15,9.78,32
5.352573,-0.14,0.22,9.51,0.375,-0.3125,0.375,-15.1875,1.1875,-47.25,88.6875,-3.375,-0.875,0.714539,0.026489,0.015503,-0.698914,0.43,0.07,-0.27,-0.58,0.15,9.78,32
5.362634,-0.03,0.15,9.45,0.0625,-0.1875,0.125,-15.1875,1.1875,-47.25,88.6875,-3.3125,-0.875,0.714539,0.026245,0.015259,-0.698914,0.54,0.0,-0.33,-0.57,0.15,9.78,32
5.372695,-0.1,0.17,9.46,0.0625,0.3125,0.6875,-15.1875,1.1875,-47.25,88.6875,-3.3125,-0.875,0.7146,0.026062,0.015015,-0.698914,0.46,0.01,-0.32,-0.56,0.15,9.78,32
5.382757,-0.14,0.13,9.53,-0.125,0.5625,2.0,-15.1875,1.1875,-47.25,88.6875,-3.25,-0.875,0.714722,0.025879,0.014832,-0.698792,0.41,-0.02,-0.25,-0.56,0.15,9.78,32
5.392818,-0.12,0.17,9.51,0.1875,0.0,5.125,-15.1875,1.1875,-47.25,88.625,-3.25,-0.875,0.715027,0.025696,0.014648,-0.698486,0.43,0.01,-0.27,-0.55,0.16,9.78,32
5.402879,-0.1,0.21,9.47,0.5,-0.5625,8.625,-14.75,0.875,-48.5,88.5625,-3.1875,-0.9375,0.715576,0.025513,0.014404,-0.697937,0.44,0.05,-0.31,-0.55,0.16,9.78,32
5.41294,-0.06,0.18,9.49,0.3125,-0.1875,9.25,-14.75,0.875,-48.5,88.4375,-3.1875,-0.9375,0.716125,0.02533,0.01416,-0.697388,0.47,0.02,-0.29,-0.54,0.16,9.79,32
5.423002,-0.1,0.24,9.52,0.3125,-0.0625,8.8125,-14.75,0.875,-48.5,88.375,-3.125,-0.9375,0.716614,0.025208,0.013916,-0.696838,0.43,0.07,-0.26,-0.53,0.16,9.79,32
5.433063,-0.16,0.26,9.49,0.125,0.375,6.1875,-14.75,0.875,-48.5,88.3125,-3.0625,-0.9375,0.71698,0.025024,0.013672,-0.696472,0.37,0.09,-0.29,-0.53,0.16,9.79,32
5.443124,-0.17,0.27,9.49,0.125,0.0,2.0,-14.75,0.875,-48.5,88.3125,-3.0625,-0.9375,0.717102,0.024902,0.013428,-0.69635,0.35,0.1,-0.29,-0.52,0.16,9.79,32
5.453185,-0.11,0.21,9.49,0.1875,0.125,0.25,-14.375,2.25,-47.6875,88.3125,-3.0625,-0.9375,0.717163,0.02478,0.013245,-0.69635,0.4,0.04,-0.29,-0.52,0.16,9.79,32
5.463246,-0.07,0.22,9.44,0.0,0.3125,0.6875,-14.375,2.25,-47.6875,88.25,-3.0,-0.9375,0.717163,0.024658,0.013,-0.69635,0.44,0.06,-0.34,-0.51,0.16,9.79,32
5.473308,-0.11,0.26,9.47,0.125,0.625,5.9375,-14.375,2.25,-47.6875,88.25,-3.0,-0.9375,0.717529,0.024536,0.012817,-0.695984,0.39,0.09,-0.31,-0.51,0.17,9.79,32
5.483369,-0.13,0.21,9.47,-0.1875,0.375,13.125,-14.375,2.25,-47.6875,88.0625,-2.9375,-1.0,0.718323,0.024414,0.012573,-0.69519,0.37,0.04,-0.31,-0.51,0.17,9.79,32
5.49343,-0.14,0.18,9.52,-0.1875,0.8125,14.25,-14.375,2.25,-47.6875,87.9375,-2.9375,-1.0,0.719177,0.024353,0.012451,-0.694275,0.36,0.01,-0.26,-0.5,0.17,9.79,32
5.503491,-0.14,0.18,9.52,-0.1875,0.8125,14.25,-14.375,1.5625,-47.6875,87.5,-2.9375,-1.0,0.721741,0.024353,0.012512,-0.691589,0.28,-0.09,-0.28,-0.5,0.17,9.79,32
5.513553,-0.22,0.08,9.5,-0.25,1.9375,13.4375,-14.375,1.5625,-47.6875,87.25,-2.9375,-1.0,0.723328,0.024475,0.012573,-0.689941,0.31,0.01,-0.35,-0.5,0.17,9.79,32
5.523614,-0.1,0.26,9.43,-0.375,1.75,37.625,-14.375,1.5625,-47.6875,86.875,-2.9375,-1.0,0.725525,0.024536,0.012451,-0.687622,0.4,0.08,-0.35,-0.5,0.18,9.79,32
5.533675,-0.04,0.26,9.48,-0.375,1.0625,36.5625,-14.375,1.5625,-47.6875,86.5625,-2.9375,-1.0625,0.727661,0.024475,0.012268,-0.685364,0.45,0.07,-0.3,-0.5,0.18,9.79,32
5.543736,-0.11,0.26,9.5,0.0,2.1875,31.0625,-14.375,1.5625,-47.6875,86.25,-2.875,-1.0625,0.729492,0.024536,0.012146,-0.683472,0.38,0.07,-0.28,-0.5,0.18,9.79,32
5.553798,-0.11,0.26,9.5,0.5,3.8125,25.75,-14.375,1.5625,-47.25,85.75,-2.9375,-1.0625,0.732544,0.024597,0.012146,-0.680176,0.4,0.1,-0.31,-0.5,0.19,9.79,32
5.563859,-0.1,0.29,9.47,0.5,3.8125,25.75,-14.375,1.5625,-47.25,85.5625,-2.9375,-1.125,0.733643,0.02478,0.012024,-0.678955,0.4,0.12,-0.37,-0.5,0.19,9.79,32
5.57392,-0.06,0.39,9.46,0.5,1.5,8.8125,-14.375,1.5625,-47.25,85.4375,-2.875,-1.125,0.734131,0.024719,0.01178,-0.678406,0.43,0.19,-0.32,-0.49,0.19,9.79,32
5.583981,-0.14,0.24,9.48,0.125,0.3125,-0.6875,-14.375,1.5625,-47.25,85.4375,-2.875,-1.125,0.734131,0.024597,0.011536,-0.678467,0.34,0.04,-0.3,-0.49,0.2,9.79,32
5.594042,-0.14,0.23,9.49,0.0,0.125,-2.875,-14.375,1.5625,-47.25,85.5,-2.8125,-1.125,0.733948,0.024475,0.011353,-0.67865,0.34,0.03,-0.29,-0.48,0.2,9.79,32
5.604104,-0.14,0.23,9.49,0.0,0.125,-2.875,-14.375,1.5625,-47.25,85.1875,-2.8125,-1.125,0.735596,0.024353,0.011292,-0.67688,0.33,0.03,-0.3,-0.48,0.2,9.79,32
5.614165,-0.15,0.23,9.48,0.0,0.1875,-3.0,-14.375,2.25,-47.25,85.25,-2.8125,-1.125,0.735474,0.024231,0.011169,-0.677002,0.32,0.0,-0.33,-0.48,0.2,9.79,32
5.624226,-0.14,0.21,9.45,-0.125,-0.125,-0.875,-14.375,2.25,-47.25,85.25,-2.75,-1.125,0.735413,0.024109,0.010986,-0.677063,0.33,0.01,-0.33,-0.47,0.2,9.79,32
5.634287,-0.15,0.2,9.49,-0.0625,0.125,0.4375,-14.375,2.25,-47.25,85.25,-2.75,-1.125,0.735474,0.024048,0.010864,-0.677063,0.32,0.0,-0.3,-0.47,0.2,9.79,32
5.644349,-0.16,0.2,9.5,-0.125,0.0625,1.5625,-14.375,2.25,-47.25,85.25,-2.75,-1.125,0.735535,0.023926,0.010803,-0.677002,0.3,0.0,-0.29,-0.47,0.2,9.79,32
5.65441,-0.15,0.22,9.46,-0.0625,0.0625,3.625,-14.375,1.875,-46.5,84.9375,-2.6875,-1.125,0.737061,0.023865,0.010681,-0.675293,0.31,0.02,-0.32,-0.47,0.2,9.79,32
5.664471,-0.15,0.24,9.47,-0.125,0.0625,5.1875,-14.375,1.875,-46.5,84.9375,-2.6875,-1.1875,0.737366,0.023743,0.010559,-0.674988,0.31,0.03,-0.31,-0.46,0.2,9.79,32
5.674532,-0.14,0.25,9.46,-0.125,0.25,5.0,-14.375,1.875,-46.5,84.875,-2.6875,-1.1875,0.737671,0.023682,0.010437,-0.674622,0.32,0.04,-0.32,-0.46,0.2,9.79,32
5.684593,-0.13,0.24,9.49,0.0,0.1875,4.0625,-14.375,1.875,-46.5,84.8125,-2.6875,-1.1875,0.737915,0.02356,0.010315,-0.674377,0.32,0.03,-0.29,-0.46,0.2,9.79,32
5.694655,-0.13,0.23,9.48,-0.125,-0.125,2.6875,-14.375,1.875,-46.5,84.8125,-2.625,-1.1875,0.738098,0.023499,0.010132,-0.674255,0.32,0.02,-0.31,-0.45,0.2,9.79,32
5.704716,-0.12,0.22,9.5,-0.125,0.0,1.9375,-14.0625,1.875,-47.6875,84.5625,-2.625,-1.1875,0.739502,0.023376,0.010071,-0.672668,0.33,0.02,-0.29,-0.45,0.2,9.79,32
5.714777,-0.14,0.24,9.47,0.0,-0.0625,0.75,-14.0625,1.875,-47.6875,84.5625,-2.625,-1.1875,0.739563,0.023315,0.009949,-0.672607,0.3,0.03,-0.31,-0.45,0.2,9.79,32
5.724838,-0.16,0.21,9.49,0.0,0.125,-0.1875,-14.0625,1.875,-47.6875,84.5625,-2.5625,-1.1875,0.739563,0.023193,0.009827,-0.672607,0.28,0.0,-0.29,-0.44,0.2,9.79,32
5.7349,-0.14,0.23,9.49,0.0,0.0625,0.0,-14.0625,1.875,-47.6875,84.5625,-2.5625,-1.1875,0.739563,0.023132,0.009705,-0.672607,0.3,0.02,-0.3,-0.44,0.2,9.79,32
5.744961,-0.14,0.21,9.5,0.0625,0.0,0.125,-14.0625,1.875,-47.6875,84.5625,-2.5625,-1.1875,0.739563,0.023071,0.009583,-0.672607,0.29,0.0,-0.28,-0.44,0.2,9.79,32
5.755022,-0.15,0.22,9.5,0.125,0.0625,0.125,-14.375,2.25,-48.0625,84.25,-2.5625,-1.1875,0.74115,0.022949,0.009583,-0.670898,0.29,0.02,-0.28,-0.44,0.2,9.79,32
5.765083,-0.13,0.22,9.49,-0.0625,0.25,0.0,-14.375,2.25,-48.0625,84.25,-2.5,-1.1875,0.74115,0.022888,0.00946,-0.670898,0.3,0.01,-0.29,-0.43,0.2,9.79,32
5.775145,-0.15,0.23,9.51,0.0625,0.25,0.0,-14.375,2.25,-48.0625,84.25,-2.5,-1.1875,0.74115,0.022766,0.009338,-0.670898,0.28,0.02,-0.27,-0.43,0.2,9.79,32
5.785206,-0.15,0.24,9.46,0.0,0.1875,0.0,-14.375,2.25,-48.0625,84.25,-2.5,-1.1875,0.74115,0.022705,0.009277,-0.670898,0.27,0.03,-0.32,-0.43,0.2,9.79,32
5.795267,-0.15,0.21,9.46,0.3125,0.125,0.0,-14.375,2.25,-48.0625,84.25,-2.5,-1.1875,0.74115,0.022644,0.009155,-0.670898,0.27,0.01,-0.32,-0.43,0.2,9.79,32
5.805328,-0.15,0.21,9.51,0.1875,0.1875,-0.125,-14.375,1.875,-46.875,84.0625,-2.5,-1.1875,0.74231,0.022583,0.009094,-0.669617,0.27,0.01,-0.27,-0.42,0.2,9.79,32
5.815389,-0.14,0.22,9.5,0.0,0.0,0.0625,-14.375,1.875,-46.875,84.0625,-2.4375,-1.1875,0.74231,0.022461,0.009033,-0.669617,0.28,0.01,-0.29,-0.42,0.2,9.79,32
5.825451,-0.13,0.24,9.47,0.125,0.1875,-0.0625,-14.375,1.875,-46.875,84.0625,-2.4375,-1.1875,0.74231,0.0224,0.008911,-0.669617,0.28,0.03,-0.32,-0.42,0.2,9.79,32
5.835512,-0.13,0.23,9.47,0.125,0.1875,0.0,-14.375,1.875,-46.875,84.0625,-2.4375,-1.1875,0.74231,0.022339,0.008789,-0.669617,0.29,0.02,-0.32,-0.42,0.2,9.79,32
5.845573,-0.15,0.21,9.49,0.125,0.25,0.0625,-14.375,1.875,-46.875,84.0625,-2.4375,-1.1875,0.74231,0.022278,0.008728,-0.669617,0.26,0.0,-0.3,-0.41,0.2,9.79,32
5.855634,-0.13,0.24,9.48,0.1875,0.125,0.0,-13.25,3.0625,-48.5,83.6875,-2.4375,-1.1875,0.744629,0.022156,0.008728,-0.667053,0.28,0.03,-0.3,-0.41,0.21,9.79,32
5.865696,-0.13,0.23,9.47,-0.1875,-0.125,0.0,-13.25,3.0625,-48.5,83.6875,-2.375,-1.1875,0.744629,0.022095,0.008606,-0.667053,0.27,0.02,-0.31,-0.41,0.21,9.79,32
5.875757,-0.15,0.23,9.48,-0.0625,0.0,0.125,-13.25,3.0625,-48.5,83.6875,-2.375,-1.1875,0.744629,0.022034,0.008484,-0.667053,0.25,0.02,-0.3,-0.41,0.21,9.79,32
5.885818,-0.13,0.21,9.46,0.0625,0.0625,0.1875,-13.25,3.0625,-48.5,83.6875,-2.375,-1.1875,0.744629,0.021973,0.008423,-0.667053,0.27,0.0,-0.32,-0.41,0.21,9.79,32
5.895879,-0.15,0.21,9.47,-0.125,0.125,0.125,-13.25,3.0625,-48.5,83.6875,-2.375,-1.1875,0.744629,0.021912,0.008362,-0.667053,0.25,0.0,-0.31,-0.4,0.21,9.79,32
5.90594,-0.14,0.22,9.5,-0.0625,-0.0625,0.0625,-13.25,1.875,-48.5,83.5,-2.375,-1.1875,0.745728,0.021851,0.008301,-0.665833,0.26,0.01,-0.28,-0.4,0.21,9.79,32
5.916002,-0.14,0.22,9.48,-0.0625,-0.125,0.125,-13.25,1.875,-48.5,83.5,-2.3125,-1.1875,0.745789,0.02179,0.00824,-0.665833,0.25,0.01,-0.3,-0.4,0.21,9.79,32
5.926063,-0.13,0.24,9.49,-0.125,0.125,0.0,-13.25,1.875,-48.5,83.5,-2.3125,-1.1875,0.745789,0.021729,0.008118,-0.665833,0.27,0.03,-0.29,-0.4,0.21,9.79,32
5.936124,-0.14,0.23,9.48,-0.125,0.0,0.0625,-13.25,1.875,-48.5,83.5,-2.3125,-1.1875,0.745789,0.021667,0.008057,-0.665833,0.25,0.02,-0.31,-0.4,0.21,9.79,32
5.946185,-0.13,0.22,9.48,-0.1875,0.1875,-0.0625,-13.25,1.875,-48.5,83.5,-2.3125,-1.1875,0.745789,0.021606,0.007935,-0.665833,0.26,0.01,-0.31,-0.39,0.21,9.79,32
5.956247,-0.15,0.23,9.47,0.1875,0.0625,0.0625,-15.1875,2.6875,-48.5,83.1875,-2.3125,-1.1875,0.747375,0.021545,0.007935,-0.664001,0.24,0.02,-0.31,-0.39,0.21,9.79,32
5.966308,-0.15,0.22,9.45,0.1875,0.3125,0.0,-15.1875,2.6875,-48.5,83.1875,-2.25,-1.1875,0.747375,0.021484,0.007874,-0.664001,0.24,0.01,-0.34,-0.39,0.21,9.79,32
5.976369,-0.16,0.23,9.49,0.125,0.375,0.0625,-15.1875,2.6875,-48.5,83.1875,-2.25,-1.1875,0.747375,0.021423,0.007751,-0.664001,0.22,0.02,-0.3,-0.39,0.21,9.79,32
5.98643,-0.14,0.21,9.46,0.1875,0.375,0.0,-15.1875,2.6875,-48.5,83.1875,-2.25,-1.1875,0.747375,0.021362,0.00769,-0.664001,0.24,0.0,-0.32,-0.39,0.21,9.79,32
5.996492,-0.16,0.23,9.47,0.0625,0.1875,-0.0625,-15.1875,2.6875,-48.5,83.1875,-2.25,-1.1875,0.747375,0.021301,0.007629,-0.664001,0.22,0.02,-0.32,-0.38,0.21,9.79,32
6.006553,-0.14,0.22,9.49,-0.0625,0.3125,0.0625,-14.75,2.25,-48.0625,83.0,-2.25,-1.1875,0.748596,0.02124,0.007629,-0.662659,0.24,0.01,-0.29,-0.38,0.21,9.79,32
6.016614,-0.14,0.21,9.51,0.0625,0.125,0.0625,-14.75,2.25,-48.0625,83.0,-2.25,-1.1875,0.748596,0.021179,0.007568,-0.662659,0.24,0.0,-0.28,-0.38,0.21,9.79,32
6.026675,-0.13,0.24,9.46,-0.0625,-0.0625,0.0625,-14.75,2.25,-48.0625,83.0,-2.1875,-1.1875,0.748596,0.021118,0.007446,-0.662659,0.24,0.02,-0.33,-0.38,0.21,9.79,32
6.036736,-0.16,0.23,9.47,0.125,0.1875,-0.0625,-14.75,2.25,-48.0625,83.0,-2.1875,-1.1875,0.748596,0.021118,0.007385,-0.662659,0.21,0.02,-0.32,-0.38,0.21,9.79,32
6.046798,-0.15,0.21,9.51,-0.125,0.125,0.0625,-14.75,2.25,-48.0625,83.0,-2.1875,-1.1875,0.748596,0.021057,0.007324,-0.662659,0.22,0.0,-0.28,-0.38,0.21,9.79,32
6.056859,-0.15,0.23,9.48,0.1875,-0.0625,-0.0625,-14.0625,2.25,-47.6875,82.8125,-2.1875,-1.25,0.749817,0.020996,0.007324,-0.661255,0.22,0.02,-0.3,-0.37,0.21,9.79,32
6.06692,-0.16,0.23,9.49,0.0,-0.0625,0.125,-14.0625,2.25,-47.6875,82.8125,-2.1875,-1.25,0.749817,0.020935,0.007263,-0.661255,0.21,0.01,-0.3,-0.37,0.21,9.79,32
6.076981,-0.14,0.22,9.45,0.0,-0.0625,0.125,-14.0625,2.25,-47.6875,82.8125,-2.1875,-1.25,0.749878,0.020874,0.007202,-0.661255,0.23,0.0,-0.33,-0.37,0.21,9.79,32
6.087043,-0.15,0.21,9.5,-0.25,-0.125,0.0625,-14.0625,2.25,-47.6875,82.8125,-2.1875,-1.25,0.749878,0.020874,0.007141,-0.661255,0.22,0.0,-0.29,-0.37,0.21,9.79,32
6.097104,-0.14,0.22,9.49,-0.125,0.0625,0.1875,-14.0625,2.25,-47.6875,82.8125,-2.125,-1.25,0.749878,0.020813,0.00708,-0.661255,0.23,0.01,-0.3,-0.37,0.21,9.79,32
6.107165,-0.14,0.23,9.47,-0.0625,0.125,0.0,-14.375,2.25,-47.25,82.5625,-2.125,-1.25,0.750977,0.020752,0.007019,-0.659912,0.22,0.01,-0.32,-0.37,0.21,9.79,32
6.117226,-0.15,0.23,9.5,-0.0625,0.0625,0.0,-14.375,2.25,-47.25,82.5625,-2.125,-1.25,0.750977,0.020691,0.006958,-0.659912,0.21,0.02,-0.29,-0.37,0.21,9.79,32
6.127287,-0.15,0.23,9.48,0.0,0.1875,0.0,-14.375,2.25,-47.25,82.5625,-2.125,-1.25,0.750977,0.020691,0.006897,-0.659912,0.21,0.02,-0.31,-0.36,0.21,9.79,32
6.137349,-0.14,0.22,9.5,-0.0625,-0.0625,0.0625,-14.375,2.25,-47.25,82.5625,-2.125,-1.25,0.750977,0.02063,0.006836,-0.659912,0.22,0.01,-0.29,-0.36,0.21,9.79,32
6.14741,-0.15,0.23,9.49,-0.1875,-0.0625,0.0,-14.375,2.25,-47.25,82.5625,-2.125,-1.25,0.750977,0.020569,0.006775,-0.659912,0.21,0.01,-0.3,-0.36,0.21,9.79,32
6.157471,-0.15,0.24,9.47,0.125,0.0625,0.0625,-14.0625,1.875,-46.875,82.5,-2.125,-1.25,0.751648,0.020569,0.006775,-0.659241,0.2,0.02,-0.32,-0.36,0.21,9.79,32
6.167532,-0.15,0.23,9.49,0.0625,-0.1875,0.0,-14.0625,1.875,-46.875,82.5,-2.125,-1.25,0.751648,0.020508,0.006714,-0.659241,0.21,0.02,-0.3,-0.36,0.21,9.79,32
6.177594,-0.12,0.24,9.47,0.0625,0.125,-0.0625,-14.0625,1.875,-46.875,82.5,-2.0625,-1.25,0.751648,0.020447,0.006592,-0.659241,0.23,0.02,-0.32,-0.36,0.21,9.79,32
6.187655,-0.12,0.22,9.48,-0.0625,0.0,0.0,-14.0625,1.875,-46.875,82.5,-2.0625,-1.25,0.751648,0.020386,0.006531,-0.659241,0.23,0.01,-0.31,-0.36,0.21,9.79,32
6.197716,-0.14,0.23,9.5,-0.0625,0.0625,0.0625,-14.0625,1.875,-46.875,82.5,-2.0625,-1.25,0.751648,0.020386,0.00647,-0.659241,0.21,0.01,-0.29,-0.35,0.21,9.79,32
6.207777,-0.13,0.23,9.47,-0.1875,0.0,0.0,-14.375,3.0625,-47.6875,82.1875,-2.0625,-1.25,0.753418,0.020325,0.00647,-0.657166,0.22,0.01,-0.31,-0.35,0.21,9.79,32
6.217839,-0.12,0.22,9.48,-0.125,0.0,0.0625,-14.375,3.0625,-47.6875,82.1875,-2.0625,-1.25,0.753418,0.020264,0.006409,-0.657166,0.22,0.01,-0.31,-0.35,0.21,9.79,32
6.2279,-0.14,0.22,9.46,-0.125,0.1875,0.125,-14.375,3.0625,-47.6875,82.1875,-2.0625,-1.25,0.753418,0.020203,0.006348,-0.657166,0.2,0.0,-0.32,-0.35,0.21,9.79,32
6.237961,-0.14,0.22,9.49,-0.125,0.125,-0.0625,-14.375,3.0625,-47.6875,82.1875,-2.0625,-1.25,0.753418,0.020203,0.006287,-0.657166,0.2,0.01,-0.3,-0.35,0.21,9.79,32
6.248022,-0.16,0.21,9.49,-0.0625,0.25,0.125,-14.375,3.0625,-47.6875,82.1875,-2.0,-1.25,0.753418,0.020142,0.006287,-0.657166,0.19,0.0,-0.3,-0.35,0.21,9.79,32
6.258083,-0.13,0.23,9.5,-0.25,0.125,0.0,-13.25,2.25,-47.25,81.9375,-2.0,-1.25,0.754578,0.020081,0.006226,-0.655884,0.21,0.01,-0.29,-0.35,0.21,9.79,32
6.268145,-0.12,0.24,9.49,-0.125,0.0625,0.0,-13.25,2.25,-47.25,81.9375,-2.0,-1.25,0.754578,0.020081,0.006165,-0.655884,0.22,0.02,-0.3,-0.34,0.21,9.79,32
6.278206,-0.16,0.23,9.49,0.0,0.0625,0.0625,-13.25,2.25,-47.25,81.9375,-2.0,-1.25,0.754578,0.02002,0.006104,-0.655884,0.18,0.02,-0.3,-0.34,0.21,9.79,32
6.288267,-0.14,0.22,9.48,0.125,0.1875,0.0,-13.25,2.25,-47.25,81.9375,-2.0,-1.25,0.754578,0.019958,0.006104,-0.655884,0.2,0.01,-0.31,-0.34,0.21,9.79,32
6.298328,-0.11,0.23,9.5,-0.125,0.125,-0.0625,-13.25,2.25,-47.25,81.9375,-2.0,-1.25,0.754578,0.019958,0.006042,-0.655884,0.22,0.01,-0.29,-0.34,0.21,9.79,32
6.30839,-0.14,0.21,9.5,-0.0625,0.1875,0.0,-14.0625,2.6875,-48.0625,81.75,-2.0,-1.25,0.75592,0.019897,0.005981,-0.654297,0.19,0.0,-0.29,-0.34,0.21,9.79,32
6.318451,-0.13,0.24,9.48,0.0625,0.0,-0.0625,-14.0625,2.6875,-48.0625,81.75,-2.0,-1.25,0.75592,0.019836,0.00592,-0.654297,0.2,0.02,-0.31,-0.34,0.21,9.79,32
6.328512,-0.14,0.23,9.66,-0.25,0.3125,0.0,-14.0625,2.6875,-48.0625,81.75,-1.9375,-1.25,0.75592,0.019836,0.00592,-0.654297,0.2,0.01,-0.13,-0.34,0.21,9.79,32
6.338573,-0.15,0.22,9.67,0.0,0.0,0.0,-14.0625,2.6875,-48.0625,81.75,-1.9375,-1.25,0.75592,0.019775,0.005859,-0.654297,0.19,0.01,-0.11,-0.34,0.21,9.79,32
6.348634,-0.15,0.24,9.65,0.0,0.3125,0.0,-14.0625,2.6875,-48.0625,81.75,-1.9375,-1.25,0.75592,0.019775,0.005798,-0.654297,0.18,0.02,-0.13,-0.33,0.21,9.79,32
6.358696,-0.14,0.22,9.64,0.125,0.0,0.0625,-15.5625,1.1875,-47.25,81.75,-1.9375,-1.25,0.75592,0.019714,0.005737,-0.654358,0.19,0.0,-0.14,-0.33,0.21,9.79,32
6.368757,-0.14,0.24,9.66,0.125,-0.0625,-0.0625,-15.5625,1.1875,-47.25,81.75,-1.9375,-1.25,0.75592,0.019714,0.005676,-0.654358,0.19,0.02,-0.13,-0.33,0.21,9.79,32
6.378818,-0.14,0.22,9.64,0.0625,0.125,0.0625,-15.5625,1.1875,-47.25,81.75,-1.9375,-1.25,0.75592,0.019653,0.005676,-0.654358,0.19,0.01,-0.14,-0.33,0.21,9.79,32
6.388879,-0.15,0.23,9.64,0.0625,0.1875,-0.0625,-15.5625,1.1875,-47.25,81.75,-1.9375,-1.25,0.75592,0.019592,0.005615,-0.654358,0.17,0.01,-0.14,-0.33,0.21,9.79,32
6.398941,-0.15,0.22,9.65,-0.125,0.1875,-0.0625,-15.5625,1.1875,-47.25,81.75,-1.9375,-1.25,0.75592,0.019592,0.005554,-0.654358,0.17,0.0,-0.13,-0.33,0.21,9.79,32
6.409002,-0.15,0.22,9.65,-0.0625,-0.3125,0.0625,-14.375,1.875,-46.0625,81.6875,-1.9375,-1.25,0.756226,0.019531,0.005554,-0.654053,0.21,0.01,-0.11,-0.33,0.21,9.79,32
6.419063,-0.16,0.23,9.64,-0.0625,0.0625,0.125,-14.375,1.875,-46.0625,81.6875,-1.9375,-1.25,0.756226,0.019531,0.005493,-0.654053,0.17,0.01,-0.14,-0.33,0.21,9.79,32
6.429124,-0.13,0.24,9.67,-0.125,0.125,0.0625,-14.375,1.875,-46.0625,81.6875,-1.875,-1.25,0.756226,0.01947,0.005432,-0.654053,0.19,0.02,-0.12,-0.33,0.21,9.79,32
6.439186,-0.16,0.23,9.66,0.0,0.125,0.0625,-14.375,1.875,-46.0625,81.6875,-1.875,-1.25,0.756226,0.01947,0.005371,-0.654053,0.16,0.01,-0.13,-0.32,0.21,9.79,32
6.449247,-0.12,0.22,9.67,0.0,0.125,-0.125,-14.375,1.875,-46.0625,81.6875,-1.875,-1.25,0.756226,0.019409,0.005371,-0.654053,0.2,0.0,-0.12,-0.32,0.21,9.79,32
6.459308,-0.15,0.22,9.67,0.0,0.0625,0.0,-14.0625,2.25,-48.0625,81.5,-1.875,-1.25,0.757141,0.019409,0.00531,-0.652954,0.17,0.0,-0.12,-0.32,0.21,9.79,32
6.469369,-0.15,0.24,9.64,0.0625,0.0625,0.0625,-14.0625,2.25,-48.0625,81.5,-1.875,-1.25,0.757141,0.019348,0.00531,-0.652954,0.17,0.02,-0.14,-0.32,0.21,9.79,32
6.47943,-0.14,0.22,9.64,0.1875,-0.1875,0.0,-14.0625,2.25,-48.0625,81.5,-1.875,-1.25,0.757141,0.019348,0.005249,-0.652954,0.18,0.0,-0.15,-0.32,0.21,9.79,32
6.489492,-0.12,0.23,9.64,0.125,0.0625,-0.0625,-14.0625,2.25,-48.0625,81.5,-1.875,-1.25,0.757141,0.019287,0.005188,-0.652954,0.2,0.01,-0.15,-0.32,0.21,9.79,32
6.499553,-0.14,0.22,9.68,0.1875,0.1875,0.0,-14.0625,2.25,-48.0625,81.5,-1.875,-1.25,0.757141,0.019287,0.005188,-0.652954,0.17,0.0,-0.11,-0.32,0.22,9.79,32
6.509614,-0.15,0.24,9.66,-0.0625,-0.1875,0.0625,-14.375,2.25,-48.0625,81.375,-1.875,-1.25,0.757935,0.019226,0.005127,-0.652039,0.17,0.02,-0.13,-0.32,0.22,9.79,32
6.519675,-0.16,0.22,9.67,0.1875,-0.125,-0.1875,-14.375,2.25,-48.0625,81.375,-1.875,-1.25,0.757935,0.019226,0.005127,-0.652039,0.15,0.0,-0.12,-0.32,0.22,9.79,32
6.529737,-0.14,0.21,9.64,0.0625,-0.1875,0.125,-14.375,2.25,-48.0625,81.375,-1.8125,-1.25,0.757935,0.019165,0.005066,-0.652039,0.17,0.0,-0.15,-0.32,0.22,9.79,32
6.539798,-0.15,0.23,9.64,0.0,0.0625,0.0625,-14.375,2.25,-48.0625,81.375,-1.8125,-1.25,0.757935,0.019165,0.005066,-0.652039,0.16,0.01,-0.15,-0.31,0.22,9.79,32
6.549859,-0.16,0.24,9.64,0.0625,0.0625,0.0,-14.375,2.25,-48.0625,81.375,-1.8125,-1.25,0.757935,0.019165,0.005005,-0.652039,0.14,0.02,-0.15,-0.31,0.22,9.79,32
6.55992,-0.14,0.24,9.7,0.0,-0.125,0.0,-14.0625,2.25,-47.25,81.25,-1.8125,-1.25,0.758728,0.019104,0.005005,-0.651062,0.17,0.02,-0.09,-0.31,0.22,9.79,32
6.569982,-0.15,0.23,9.67,0.0625,-0.125,0.125,-14.0625,2.25,-47.25,81.25,-1.8125,-1.25,0.758728,0.019104,0.004944,-0.651062,0.16,0.01,-0.12,-0.31,0.22,9.79,32
6.580043,-0.12,0.22,9.65,-0.125,-0.3125,0.0625,-14.0625,2.25,-47.25,81.25,-1.8125,-1.25,0.758728,0.019043,0.004883,-0.651062,0.19,0.0,-0.14,-0.31,0.22,9.79,32
6.590104,-0.13,0.22,9.67,0.0625,-0.0625,0.0,-14.0625,2.25,-47.25,81.25,-1.8125,-1.25,0.758728,0.019043,0.004883,-0.651062,0.18,0.0,-0.12,-0.31,0.22,9.79,32
6.600165,-0.14,0.22,9.65,0.0,-0.125,-0.0625,-14.0625,2.25,-47.25,81.25,-1.8125,-1.25,0.758728,0.018982,0.004822,-0.651062,0.17,0.0,-0.14,-0.31,0.22,9.79,32
6.610226,-0.13,0.24,9.66,-0.0625,-0.25,0.0,-14.75,1.875,-46.0625,81.1875,-1.8125,-1.25,0.758911,0.018982,0.004822,-0.65094,0.17,0.02,-0.13,-0.31,0.22,9.79,32
6.620288,-0.15,0.23,9.66,0.125,-0.1875,0.0625,-14.75,1.875,-46.0625,81.1875,-1.8125,-1.25,0.758911,0.018921,0.004761,-0.65094,0.15,0.01,-0.13,-0.31,0.22,9.79,32
6.630349,-0.13,0.23,9.65,0.0,-0.1875,0.0625,-14.75,1.875,-46.0625,81.1875,-1.8125,-1.25,0.758911,0.018921,0.0047,-0.65094,0.18,0.01,-0.13,-0.31,0.22,9.79,32
6.64041,-0.13,0.25,9.66,0.125,-0.125,0.0,-14.75,1.875,-46.0625,81.1875,-1.8125,-1.25,0.758911,0.01886,0.0047,-0.65094,0.17,0.03,-0.13,-0.31,0.22,9.79,32
6.650471,-0.13,0.23,9.66,0.0,-0.0625,0.0,-14.75,1.875,-46.0625,81.1875,-1.75,-1.25,0.758911,0.01886,0.004639,-0.65094,0.17,0.01,-0.13,-0.3,0.22,9.79,32
6.660533,-0.15,0.23,9.67,0.125,0.0,-0.0625,-14.375,3.0625,-47.25,80.9375,-1.75,-1.25,0.760437,0.018799,0.004639,-0.64917,0.15,0.01,-0.12,-0.3,0.22,9.79,32
6.670594,-0.15,0.22,9.65,0.0625,-0.0625,0.0625,-14.375,3.0625,-47.25,80.9375,-1.75,-1.25,0.760437,0.018799,0.004639,-0.64917,0.15,0.0,-0.13,-0.3,0.22,9.79,32
6.680655,-0.14,0.21,9.63,0.125,-0.0625,0.0,-14.375,3.0625,-47.25,80.9375,-1.75,-1.25,0.760437,0.018799,0.004578,-0.64917,0.16,0.0,-0.16,-0.3,0.22,9.79,32
6.690716,-0.13,0.22,9.64,0.0625,-0.0625,0.0,-14.375,3.0625,-47.25,80.9375,-1.75,-1.25,0.760437,0.018738,0.004578,-0.64917,0.17,0.0,-0.15,-0.3,0.22,9.79,32
6.700777,-0.14,0.23,9.66,0.1875,0.0625,-0.0625,-14.375,3.0625,-47.25,80.9375,-1.75,-1.25,0.760437,0.018738,0.004517,-0.64917,0.16,0.01,-0.13,-0.3,0.22,9.79,32
6.710839,-0.13,0.23,9.67,0.125,0.25,0.125,-14.375,1.1875,-47.6875,80.9375,-1.75,-1.25,0.760376,0.018677,0.004456,-0.649231,0.17,0.01,-0.12,-0.3,0.22,9.79,32
6.7209,-0.13,0.23,9.66,0.0,-0.3125,0.125,-14.375,1.1875,-47.6875,80.9375,-1.75,-1.25,0.760376,0.018677,0.004456,-0.649231,0.17,0.01,-0.13,-0.3,0.22,9.79,32
6.730961,-0.14,0.24,9.64,0.0,-0.0625,-0.0625,-14.375,1.1875,-47.6875,80.9375,-1.75,-1.25,0.760376,0.018677,0.004395,-0.649231,0.16,0.02,-0.14,-0.3,0.22,9.79,32
6.741022,-0.12,0.23,9.64,0.0,-0.1875,0.125,-14.375,1.1875,-47.6875,80.9375,-1.75,-1.25,0.760376,0.018616,0.004395,-0.649231,0.17,0.01,-0.14,-0.3,0.22,9.79,32
6.751084,-0.12,0.24,9.65,0.0,-0.1875,0.0,-14.375,1.1875,-47.6875,80.9375,-1.75,-1.25,0.760376,0.018616,0.004333,-0.649231,0.17,0.02,-0.14,-0.3,0.22,9.79,32
6.761145,-0.14,0.24,9.68,0.0625,-0.0625,0.0625,-14.75,2.25,-48.0625,80.875,-1.75,-1.25,0.760864,0.018555,0.004333,-0.648621,0.15,0.02,-0.11,-0.3,0.22,9.79,32
6.771206,-0.13,0.23,9.68,-0.25,-0.125,0.125,-14.75,2.25,-48.0625,80.875,-1.75,-1.25,0.760864,0.018555,0.004272,-0.648621,0.16,0.01,-0.11,-0.29,0.22,9.79,32
6.781267,-0.13,0.23,9.64,0.0,-0.1875,-0.0625,-14.75,2.25,-48.0625,80.875,-1.6875,-1.25,0.760864,0.018494,0.004211,-0.648621,0.16,0.01,-0.14,-0.29,0.22,9.79,32
6.791329,-0.13,0.22,9.65,-0.125,-0.0625,0.125,-14.75,2.25,-48.0625,80.875,-1.6875,-1.25,0.760864,0.018494,0.004211,-0.648621,0.16,0.0,-0.14,-0.29,0.22,9.79,32
6.80139,-0.15,0.23,9.66,0.0625,-0.125,0.0625,-14.75,2.25,-48.0625,80.875,-1.6875,-1.25,0.760864,0.018494,0.00415,-0.648621,0.14,0.01,-0.13,-0.29,0.22,9.79,32
6.811451,-0.14,0.22,9.69,0.0625,-0.25,-0.125,-14.0625,1.875,-47.6875,80.8125,-1.6875,-1.25,0.761047,0.018433,0.00415,-0.648438,0.15,0.0,-0.1,-0.29,0.22,9.79,32
6.821512,-0.15,0.23,9.64,0.0625,-0.25,-0.0625,-14.0625,1.875,-47.6875,80.8125,-1.6875,-1.25,0.761047,0.018433,0.004089,-0.648438,0.14,0.01,-0.14,-0.29,0.22,9.79,32
6.831573,-0.15,0.22,9.63,0.0625,-0.0625,0.0625,-14.0625,1.875,-47.6875,80.8125,-1.6875,-1.25,0.761047,0.018433,0.004089,-0.648438,0.14,0.0,-0.16,-0.29,0.22,9.79,32
6.841635,-0.14,0.23,9.65,0.125,0.0625,0.0625,-14.0625,1.875,-47.6875,80.8125,-1.6875,-1.25,0.761047,0.018372,0.004089,-0.648438,0.14,0.01,-0.14,-0.29,0.22,9.79,32
6.851696,-0.12,0.24,9.68,0.125,0.0,0.0625,-14.0625,1.875,-47.6875,80.8125,-1.6875,-1.25,0.761047,0.018372,0.004028,-0.648438,0.17,0.02,-0.11,-0.29,0.22,9.79,32
6.861757,-0.13,0.24,9.65,0.0625,-0.0625,0.0625,-14.375,2.6875,-47.25,80.625,-1.6875,-1.25,0.762146,0.018372,0.004028,-0.647156,0.15,0.02,-0.14,-0.29,0.22,9.79,32
6.871818,-0.14,0.24,9.64,0.0,0.0,0.0,-14.375,2.6875,-47.25,80.625,-1.6875,-1.25,0.762146,0.018311,0.003967,-0.647156,0.14,0.01,-0.15,-0.29,0.22,9.79,32
6.88188,-0.14,0.25,9.64,0.0,-0.0625,0.0,-14.375,2.6875,-47.25,80.625,-1.6875,-1.25,0.762146,0.018311,0.003967,-0.647156,0.14,0.02,-0.14,-0.29,0.22,9.79,32
6.891941,-0.13,0.22,9.66,-0.0625,-0.3125,0.0,-14.375,2.6875,-47.25,80.625,-1.6875,-1.25,0.762146,0.018311,0.003906,-0.647156,0.15,0.0,-0.13,-0.29,0.22,9.79,32
6.902002,-0.16,0.23,9.65,0.125,-0.25,0.0625,-14.375,2.6875,-47.25,80.625,-1.6875,-1.25,0.762146,0.01825,0.003906,-0.647156,0.13,0.01,-0.14,-0.29,0.22,9.79,32
6.912063,-0.14,0.22,9.64,0.0,-0.125,0.0625,-14.375,3.0625,-47.25,80.375,-1.6875,-1.25,0.763489,0.01825,0.003906,-0.645508,0.14,0.0,-0.15,-0.28,0.22,9.79,32
6.922124,-0.14,0.23,9.66,0.0625,-0.0625,0.0,-14.375,3.0625,-47.25,80.375,-1.6875,-1.25,0.763489,0.01825,0.003906,-0.645508,0.14,0.01,-0.13,-0.28,0.22,9.79,32
6.932186,-0.14,0.24,9.63,0.1875,0.1875,0.125,-14.375,3.0625,-47.25,80.375,-1.625,-1.25,0.763489,0.018188,0.003845,-0.645508,0.14,0.01,-0.16,-0.28,0.22,9.79,32
6.942247,-0.16,0.23,9.64,0.25,-0.0625,0.0625,-14.375,3.0625,-47.25,80.375,-1.625,-1.25,0.763489,0.018188,0.003845,-0.645508,0.11,0.0,-0.15,-0.28,0.22,9.79,32
6.952308,-0.15,0.23,9.66,0.0625,0.125,0.125,-14.375,3.0625,-47.25,80.375,-1.625,-1.25,0.763489,0.018188,0.003845,-0.645508,0.13,0.01,-0.13,-0.28,0.22,9.79,32
6.962369,-0.14,0.23,9.64,0.0,0.0625,0.0625,-14.375,1.5625,-47.6875,80.375,-1.625,-1.25,0.763489,0.018188,0.003784,-0.645508,0.14,0.0,-0.15,-0.28,0.22,9.79,32
6.972431,-0.14,0.23,9.65,0.0625,-0.125,-0.1875,-14.375,1.5625,-47.6875,80.375,-1.625,-1.25,0.763489,0.018127,0.003784,-0.645508,0.14,0.01,-0.14,-0.28,0.22,9.79,32
6.982492,-0.13,0.23,9.62,-0.0625,0.0625,-0.125,-14.375,1.5625,-47.6875,80.375,-1.625,-1.25,0.763489,0.018127,0.003723,-0.645508,0.14,0.01,-0.17,-0.28,0.22,9.79,32
6.992553,-0.13,0.23,9.64,-0.1875,0.0625,0.0,-14.375,1.5625,-47.6875,80.375,-1.625,-1.25,0.763489,0.018127,0.003723,-0.645508,0.15,0.0,-0.15,-0.28,0.22,9.79,32
7.002614,-0.14,0.22,9.65,0.0,0.0,0.0,-14.375,1.5625,-47.6875,80.375,-1.625,-1.25,0.763489,0.018066,0.003662,-0.645508,0.13,0.0,-0.14,-0.28,0.22,9.79,32
7.012676,-0.14,0.22,9.65,0.0625,0.1875,-0.1875,-14.375,3.0625,-47.6875,80.1875,-1.625,-1.25,0.764832,0.018066,0.003723,-0.643982,0.13,0.01,-0.09,-0.28,0.22,9.79,32
7.022737,-0.13,0.23,9.65,0.0625,0.0,0.0625,-14.375,3.0625,-47.6875,80.1875,-1.625,-1.25,0.764832,0.018066,0.003662,-0.643982,0.15,0.01,-0.14,-0.28,0.22,9.8,32
7.032798,-0.13,0.23,9.67,0.0625,-0.25,0.0,-14.375,3.0625,-47.6875,80.1875,-1.625,-1.25,0.764832,0.018005,0.003662,-0.643982,0.15,0.0,-0.12,-0.28,0.22,9.8,32
7.042859,-0.14,0.24,9.65,0.125,0.0625,0.0,-14.375,3.0625,-47.6875,80.1875,-1.625,-1.25,0.764832,0.018005,0.003601,-0.643982,0.13,0.01,-0.14,-0.28,0.22,9.8,32
7.05292,-0.14,0.25,9.63,0.0625,0.0625,-0.0625,-14.375,3.0625,-47.6875,80.1875,-1.625,-1.3125,0.764832,0.018005,0.003601,-0.643982,0.13,0.02,-0.16,-0.28,0.22,9.8,32
7.062982,-0.15,0.23,9.69,-0.0625,-0.0625,0.0,-14.0625,1.875,-48.0625,80.125,-1.625,-1.3125,0.764893,0.017944,0.00354,-0.64386,0.12,0.0,-0.1,-0.28,0.22,9.8,32
7.073043,-0.14,0.22,9.65,0.0,0.0,0.0,-14.0625,1.875,-48.0625,80.125,-1.625,-1.3125,0.764893,0.017944,0.00354,-0.64386,0.13,0.0,-0.14,-0.27,0.22,9.8,32
7.083104,-0.15,0.22,9.66,-0.0625,0.0625,-0.125,-14.0625,1.875,-48.0625,80.125,-1.625,-1.3125,0.764893,0.017944,0.00354,-0.64386,0.12,0.0,-0.13,-0.27,0.22,9.8,32
7.093165,-0.13,0.23,9.65,0.1875,0.3125,-0.125,-14.0625,1.875,-48.0625,80.125,-1.625,-1.3125,0.764893,0.017944,0.003479,-0.64386,0.14,0.0,-0.14,-0.27,0.22,9.8,32
7.103227,-0.15,0.22,9.64,-0.1875,0.1875,-0.0625,-14.0625,1.875,-48.0625,80.125,-1.625,-1.3125,0.764893,0.017883,0.003479,-0.64386,0.12,0.0,-0.15,-0.27,0.22,9.8,32
7.113288,-0.14,0.22,9.65,-0.1875,0.0625,0.0,-14.375,2.6875,-47.25,80.0,-1.5625,-1.3125,0.765808,0.017883,0.003479,-0.642822,0.13,0.0,-0.14,-0.27,0.22,9.8,32
7.123349,-0.14,0.23,9.69,-0.125,0.0625,0.0625,-14.375,2.6875,-47.25,80.0,-1.5625,-1.3125,0.765808,0.017883,0.003479,-0.642822,0.13,0.01,-0.1,-0.27,0.22,9.8,32
7.13341,-0.14,0.22,9.63,0.0625,0.0,0.0625,-14.375,2.6875,-47.25,80.0,-1.5625,-1.3125,0.765808,0.017883,0.003418,-0.642822,0.13,0.0,-0.16,-0.27,0.22,9.8,32
7.143471,-0.14,0.24,9.66,0.0,-0.1875,0.125,-14.375,2.6875,-47.25,80.0,-1.5625,-1.3125,0.765808,0.017822,0.003418,-0.642822,0.13,0.02,-0.13,-0.27,0.22,9.8,32
7.153533,-0.13,0.24,9.67,0.0,-0.1875,0.0,-14.375,2.6875,-47.25,80.0,-1.5625,-1.3125,0.765808,0.017822,0.003357,-0.642822,0.14,0.01,-0.12,-0.27,0.22,9.8,32
7.163594,-0.16,0.23,9.69,-0.1875,-0.3125,-0.0625,-14.75,1.875,-48.5,80.0,-1.5625,-1.3125,0.765808,0.017822,0.003357,-0.642822,0.11,0.01,-0.1,-0.27,0.22,9.8,32
7.173655,-0.14,0.23,9.66,-0.125,-0.125,-0.125,-14.75,1.875,-48.5,80.0,-1.5625,-1.3125,0.765808,0.017822,0.003357,-0.642822,0.12,0.0,-0.13,-0.27,0.22,9.8,32
7.183716,-0.12,0.24,9.64,0.0,0.1875,-0.125,-14.75,1.875,-48.5,80.0,-1.5625,-1.3125,0.765808,0.017761,0.003296,-0.642822,0.14,0.01,-0.15,-0.27,0.22,9.8,32
7.193778,-0.13,0.24,9.65,0.0,0.0,-0.125,-14.75,1.875,-48.5,80.0,-1.5625,-1.3125,0.765808,0.017761,0.003296,-0.642822,0.14,0.01,-0.14,-0.27,0.22,9.8,32
7.203839,-0.15,0.21,9.67,-0.0625,0.125,0.0,-14.75,1.875,-48.5,80.0,-1.5625,-1.3125,0.765808,0.017761,0.003235,-0.642822,0.11,0.0,-0.12,-0.27,0.22,9.8,32
7.2139,-0.15,0.23,9.67,-0.25,0.0,-0.1875,-14.75,1.5625,-47.25,80.0,-1.5625,-1.3125,0.765808,0.017761,0.003235,-0.642822,0.11,0.01,-0.12,-0.27,0.22,9.8,32
7.223961,-0.14,0.22,9.68,-0.1875,0.0625,0.0625,-14.75,1.5625,-47.25,80.0,-1.5625,-1.3125,0.765808,0.0177,0.003235,-0.642822,0.13,0.0,-0.11,-0.27,0.22,9.8,32
7.234023,-0.13,0.2,9.67,0.0625,0.375,0.0625,-14.75,1.5625,-47.25,80.0,-1.5625,-1.3125,0.765808,0.0177,0.003235,-0.642822,0.13,-0.01,-0.12,-0.27,0.22,9.8,32
7.244084,-0.13,0.24,9.66,0.125,0.125,-0.1875,-14.75,1.5625,-47.25,80.0,-1.5625,-1.3125,0.765808,0.0177,0.003174,-0.642822,0.13,0.01,-0.13,-0.27,0.22,9.8,32
7.254145,-0.13,0.23,9.67,0.0625,0.125,0.0625,-14.75,1.5625,-47.25,80.0,-1.5625,-1.3125,0.765808,0.017639,0.003174,-0.642822,0.13,0.0,-0.12,-0.27,0.22,9.8,32
7.264206,-0.14,0.23,9.64,0.0625,0.125,0.0625,-14.75,1.875,-47.6875,80.0,-1.5625,-1.3125,0.765808,0.017639,0.003113,-0.642822,0.12,0.01,-0.15,-0.26,0.22,9.8,32
7.274267,-0.15,0.24,9.65,-0.1875,0.0625,-0.125,-14.75,1.875,-47.6875,80.0,-1.5625,-1.3125,0.765808,0.017639,0.003113,-0.642822,0.11,0.02,-0.14,-0.26,0.22,9.8,32
7.284329,-0.12,0.22,9.64,0.0,0.0,-0.0625,-14.75,1.875,-47.6875,80.0,-1.5625,-1.3125,0.765808,0.017639,0.003113,-0.642822,0.14,0.0,-0.15,-0.26,0.22,9.8,32
7.29439,-0.14,0.23,9.65,0.0,0.0,0.0,-14.75,1.875,-47.6875,80.0,-1.5625,-1.3125,0.765808,0.017639,0.003052,-0.642822,0.12,0.01,-0.14,-0.26,0.22,9.8,32
7.304451,-0.12,0.23,9.65,0.0,0.0625,0.125,-14.75,1.875,-47.6875,80.0,-1.5625,-1.3125,0.765808,0.017578,0.003052,-0.642822,0.14,0.0,-0.14,-0.26,0.22,9.8,32
7.314512,-0.16,0.23,9.66,0.0,-0.125,-0.125,-14.0625,2.6875,-47.25,79.8125,-1.5,-1.3125,0.766724,0.017578,0.003052,-0.641724,0.1,0.0,-0.13,-0.26,0.22,9.8,32
7.324574,-0.16,0.23,9.65,0.125,0.0,-0.125,-14.0625,2.6875,-47.25,79.8125,-1.5,-1.3125,0.766724,0.017578,0.003052,-0.641724,0.1,0.01,-0.14,-0.26,0.22,9.8,32
7.334635,-0.14,0.23,9.67,-0.0625,0.0,0.0,-14.0625,2.6875,-47.25,79.8125,-1.5,-1.3125,0.766724,0.017578,0.003052,-0.641724,0.12,0.01,-0.12,-0.26,0.22,9.8,32
7.344696,-0.13,0.2,9.65,0.0,0.1875,-0.1875,-14.0625,2.6875,-47.25,79.8125,-1.5,-1.3125,0.766724,0.017578,0.003052,-0.641724,0.13,-0.01,-0.14,-0.26,0.22,9.8,32
7.354757,-0.16,0.24,9.67,-0.1875,0.125,-0.0625,-14.0625,2.6875,-47.25,79.8125,-1.5,-1.3125,0.766724,0.017578,0.003052,-0.641724,0.1,0.02,-0.12,-0.26,0.22,9.8,32
7.364818,-0.14,0.22,9.68,-0.125,0.25,-0.0625,-14.375,3.375,-48.875,79.5625,-1.5,-1.3125,0.768188,0.017578,0.003052,-0.639954,0.12,0.0,-0.11,-0.26,0.22,9.8,32
7.37488,-0.14,0.24,9.67,-0.125,0.0,-0.0625,-14.375,3.375,-48.875,79.5625,-1.5,-1.3125,0.768188,0.017578,0.003052,-0.639954,0.12,0.02,-0.12,-0.26,0.22,9.8,32
7.384941,-0.15,0.23,9.65,0.125,0.1875,-0.125,-14.375,3.375,-48.875,79.5625,-1.5,-1.3125,0.768188,0.017578,0.003052,-0.639954,0.11,0.0,-0.14,-0.26,0.22,9.8,32
7.395002,-0.14,0.23,9.64,-0.125,0.125,0.0,-14.375,3.375,-48.875,79.5625,-1.5,-1.3125,0.768188,0.017578,0.003052,-0.639954,0.12,0.01,-0.15,-0.26,0.22,9.8,32
7.405063,-0.14,0.22,9.65,-0.0625,0.0625,0.125,-14.375,3.375,-48.875,79.5625,-1.5,-1.3125,0.768188,0.017578,0.003052,-0.639954,0.12,0.0,-0.14,-0.26,0.22,9.8,32
7.415125,-0.13,0.24,9.65,0.0,0.0,0.0625,-15.1875,2.25,-47.25,79.5625,-1.5,-1.3125,0.768311,0.017578,0.003052,-0.639832,0.13,0.02,-0.14,-0.26,0.22,9.8,32
7.425186,-0.15,0.22,9.68,0.125,0.0625,0.0,-15.1875,2.25,-47.25,79.5625,-1.5,-1.3125,0.768311,0.017578,0.003052,-0.639832,0.11,0.0,-0.11,-0.26,0.22,9.8,32
7.435247,-0.11,0.22,9.65,0.0,0.25,-0.125,-15.1875,2.25,-47.25,79.5625,-1.5,-1.3125,0.768311,0.017578,0.003052,-0.639832,0.14,0.0,-0.14,-0.26,0.22,9.8,32
7.445308,-0.13,0.24,9.64,-0.125,-0.1875,-0.0625,-15.1875,2.25,-47.25,79.5625,-1.5,-1.3125,0.768311,0.017578,0.003052,-0.639832,0.13,0.01,-0.15,-0.26,0.22,9.8,32
7.45537,-0.13,0.23,9.65,-0.125,0.125,0.0,-15.1875,2.25,-47.25,79.5625,-1.5,-1.3125,0.768311,0.017578,0.003052,-0.639832,0.13,0.0,-0.14,-0.26,0.22,9.8,32
7.465431,-0.14,0.24,9.66,0.0,0.375,0.0,-14.375,2.25,-47.6875,79.5,-1.5,-1.3125,0.768494,0.017578,0.003113,-0.639587,0.12,0.02,-0.13,-0.26,0.22,9.8,32
7.475492,-0.11,0.24,9.66,0.0,0.0,-0.0625,-14.375,2.25,-47.6875,79.5,-1.5,-1.3125,0.768494,0.017578,0.003113,-0.639587,0.14,0.01,-0.13,-0.26,0.22,9.8,32
7.485553,-0.15,0.23,9.64,0.125,-0.125,-0.0625,-14.375,2.25,-47.6875,79.5,-1.5,-1.3125,0.768494,0.017578,0.003113,-0.639587,0.11,0.0,-0.15,-0.26,0.22,9.8,32
7.495614,-0.15,0.23,9.66,0.0,0.0,0.0,-14.375,2.25,-47.6875,79.5,-1.5,-1.3125,0.768494,0.017578,0.003113,-0.639587,0.11,0.01,-0.13,-0.26,0.22,9.8,32
