t,acc_X,acc_Y,acc_Z,gyr_X,gyr_Y,gyr_Z,mag_X,mag_Y,mag_Z,eul_heading,eul_roll,eul_pitch,quat_w,quat_x,quat_y,quat_z,lia_X,lia_Y,lia_Z,grv_X,grv_Y,grv_Z,temp
0.0,-0.32,3.21,9.3,-0.125,-0.1875,0.1875,0.375,78.75,-13.1875,0.0,-1.875,-19.0625,0.986084,0.165588,0.016846,0.0,0.0,0.0,0.0,-0.32,3.2,9.26,21
0.010961,-0.33,3.19,9.27,0.0,-0.1875,0.3125,0.375,78.75,-13.1875,0.0,-1.875,-19.0625,0.986084,0.165588,0.016846,0.0,0.0,0.01,0.04,-0.32,3.2,9.26,21
0.021921,-0.32,3.21,9.3,0.0625,-0.25,0.25,0.375,78.75,-13.1875,0.0,-1.875,-19.0625,0.986084,0.165588,0.016846,0.0,0.0,0.01,0.03,-0.32,3.2,9.26,21
0.032882,-0.33,3.21,9.29,-0.25,-0.3125,0.1875,0.375,78.75,-13.1875,0.0,-1.875,-19.0625,0.986084,0.165588,0.016846,0.0,0.0,0.0,0.04,-0.32,3.2,9.26,21
0.043842,-0.33,3.2,9.3,-0.0625,0.0,0.1875,1.875,78.75,-14.0,0.0,-1.875,-19.0625,0.986084,0.165588,0.016846,0.0,0.0,-0.01,0.05,-0.32,3.2,9.26,21
0.054803,-0.32,3.18,9.31,-0.25,-0.1875,0.125,1.875,78.75,-14.0,0.0,-1.875,-19.0625,0.986084,0.165588,0.016846,0.0,0.0,0.02,0.03,-0.32,3.2,9.26,21
0.065763,-0.31,3.22,9.29,-0.0625,-0.25,0.125,1.875,78.75,-14.0,0.0,-1.875,-19.0625,0.986084,0.165588,0.016846,0.0,0.0,-0.01,0.07,-0.32,3.2,9.26,21
0.076724,-0.33,3.18,9.33,0.0,-0.125,0.1875,1.875,78.75,-14.0,0.0,-1.875,-19.0625,0.986084,0.165588,0.016846,0.0,0.0,0.0,0.06,-0.32,3.2,9.26,21
0.087684,-0.32,3.19,9.33,-0.1875,-0.125,0.25,4.875,77.375,-15.875,0.0,-1.875,-19.0625,0.986084,0.165588,0.016846,0.0,0.0,0.01,0.02,-0.32,3.2,9.26,21
0.098645,-0.32,3.21,9.28,-0.0625,-0.3125,0.25,4.875,77.375,-15.875,0.0,-1.875,-19.0625,0.986084,0.165588,0.016846,0.0,0.0,0.01,0.01,-0.32,3.2,9.26,21
0.109605,-0.31,3.21,9.27,-0.125,-0.25,0.25,4.875,77.375,-15.875,360.0,-1.875,-19.0625,0.986084,0.165588,0.016846,0.0,0.01,0.0,0.03,-0.32,3.2,9.26,21
0.120566,-0.31,3.2,9.29,-0.25,-0.25,0.1875,4.875,77.375,-15.875,360.0,-1.875,-19.0625,0.986084,0.165588,0.016846,0.0,-0.01,0.0,0.03,-0.32,3.2,9.26,21
0.131526,-0.34,3.19,9.29,-0.3125,-0.3125,0.1875,4.875,77.375,-15.875,360.0,-1.875,-19.0625,0.986084,0.165588,0.016846,0.0,0.0,0.0,0.01,-0.32,3.2,9.26,21
0.142487,-0.32,3.2,9.27,-0.3125,-0.4375,0.1875,6.75,77.6875,-16.25,360.0,-1.875,-19.0625,0.986084,0.165588,0.016846,0.0,0.0,0.0,0.05,-0.32,3.2,9.26,21
0.153447,-0.32,3.2,9.31,-0.125,-0.0625,0.1875,6.75,77.6875,-16.25,360.0,-1.875,-19.0625,0.986084,0.165588,0.016846,0.0,0.0,0.0,0.05,-0.32,3.2,9.26,21
0.164408,-0.32,3.2,9.31,0.0,-0.1875,0.25,6.75,77.6875,-16.25,360.0,-1.875,-19.0625,0.986084,0.165588,0.016846,0.0,0.0,0.0,0.02,-0.32,3.2,9.26,21
0.175368,-0.31,3.2,9.28,-0.0625,-0.0625,0.125,6.75,77.6875,-16.25,360.0,-1.875,-19.0625,0.986084,0.165588,0.016846,0.0,0.0,0.0,0.01,-0.32,3.2,9.26,21
0.186329,-0.32,3.2,9.27,-0.125,-0.0625,0.25,6.75,77.6875,-16.25,360.0,-1.875,-19.0625,0.986084,0.165588,0.016846,0.0,0.0,0.0,0.05,-0.32,3.2,9.26,21
0.197289,-0.33,3.2,9.31,-0.125,-0.3125,0.375,5.25,77.0,-15.875,360.0,-1.875,-19.0625,0.986084,0.165588,0.016846,0.0,0.0,-0.01,0.07,-0.32,3.2,9.26,21
0.20825,-0.33,3.18,9.33,0.0,-0.0625,0.25,5.25,77.0,-15.875,360.0,-1.875,-19.0625,0.986084,0.165588,0.016846,0.0,0.0,0.0,0.04,-0.32,3.2,9.26,21
0.21921,-0.31,3.2,9.3,-0.0625,-0.4375,0.25,5.25,77.0,-15.875,360.0,-1.875,-19.0625,0.986084,0.165588,0.016846,0.0,0.0,0.01,0.05,-0.32,3.2,9.26,21
0.230171,-0.32,3.21,9.31,0.1875,-0.4375,0.3125,5.25,77.0,-15.875,360.0,-1.875,-19.0625,0.986084,0.165588,0.016846,0.0,0.0,0.01,0.05,-0.32,3.2,9.26,21
0.241131,-0.32,3.21,9.31,-0.0625,-0.5,0.3125,5.25,77.0,-15.875,360.0,-1.875,-19.0625,0.986084,0.165588,0.016846,0.0,0.0,0.0,0.05,-0.32,3.2,9.26,21
0.252092,-0.32,3.2,9.31,-0.1875,-0.1875,0.125,7.5,77.0,-15.875,360.0,-1.875,-19.0625,0.986084,0.165588,0.016846,0.0,0.0,0.0,0.04,-0.32,3.2,9.26,21
0.263053,-0.32,3.2,9.3,-0.1875,-0.125,0.25,7.5,77.0,-15.875,360.0,-1.875,-19.0625,0.986084,0.165588,0.016846,0.0,0.0,0.0,0.01,-0.32,3.2,9.26,21
0.274013,-0.32,3.19,9.27,-0.0625,-0.5,0.375,7.5,77.0,-15.875,360.0,-1.875,-19.0625,0.986084,0.165588,0.016846,0.0,0.0,0.02,0.03,-0.32,3.2,9.26,21
0.284974,-0.33,3.22,9.29,-0.0625,-0.375,0.3125,7.5,77.0,-15.875,360.0,-1.875,-19.0625,0.986084,0.165588,0.016846,0.0,0.0,0.0,0.03,-0.32,3.2,9.26,21
0.295934,-0.32,3.2,9.29,-0.1875,-0.1875,0.1875,7.5,77.0,-15.875,360.0,-1.875,-19.0625,0.986084,0.165588,0.016846,0.0,0.0,0.0,0.05,-0.32,3.2,9.26,21
0.306895,-0.33,3.19,9.31,-0.125,-0.4375,0.25,5.25,77.0,-15.875,360.0,-1.875,-19.0625,0.986084,0.165588,0.016846,0.0,0.0,0.0,0.03,-0.32,3.2,9.26,21
0.317855,-0.32,3.18,9.34,-0.1875,-0.125,0.1875,5.25,77.0,-15.875,360.0,-1.875,-19.0625,0.986084,0.165588,0.016846,0.0,0.0,-0.01,0.08,-0.32,3.2,9.26,21
0.328816,-0.33,3.21,9.28,0.0,-0.3125,0.1875,5.25,77.0,-15.875,360.0,-1.875,-19.0625,0.986084,0.165588,0.016846,0.0,0.0,0.01,0.03,-0.32,3.2,9.26,21
0.339776,-0.32,3.21,9.29,-0.1875,-0.5,0.125,5.25,77.0,-15.875,360.0,-1.875,-19.0625,0.986084,0.165588,0.016846,0.0,0.0,0.0,0.02,-0.32,3.2,9.26,21
0.350737,-0.33,3.19,9.28,-0.125,-0.4375,0.25,5.25,77.0,-15.875,360.0,-1.875,-19.0625,0.986084,0.165588,0.016846,0.0,0.0,0.0,0.02,-0.32,3.2,9.26,21
0.361697,-0.31,3.18,9.3,-0.0625,0.0,0.25,4.875,77.75,-15.875,360.0,-1.875,-19.0625,0.986084,0.165588,0.016846,0.0,0.0,0.0,0.03,-0.32,3.2,9.26,21
0.372658,-0.32,3.19,9.29,0.125,-0.0625,0.25,4.875,77.75,-15.875,360.0,-1.875,-19.0625,0.986084,0.165588,0.016846,0.0,0.0,0.0,0.03,-0.32,3.2,9.26,21
0.383618,-0.32,3.19,9.29,-0.0625,-0.3125,0.0625,4.875,77.75,-15.875,360.0,-1.875,-19.0625,0.986084,0.165588,0.016846,0.0,0.0,-0.01,0.05,-0.32,3.2,9.26,21
0.394579,-0.32,3.18,9.31,-0.0625,-0.4375,0.1875,4.875,77.75,-15.875,360.0,-1.875,-19.0625,0.986084,0.165588,0.016846,0.0,0.0,-0.01,0.05,-0.32,3.2,9.26,21
0.405539,-0.32,3.18,9.32,-0.25,-0.25,0.25,4.875,76.5625,-14.75,359.9375,-1.875,-19.0625,0.986084,0.165588,0.016846,0.0,0.0,0.01,0.04,-0.32,3.2,9.26,21
0.4165,-0.32,3.21,9.3,-0.125,-0.125,0.1875,4.875,76.5625,-14.75,359.9375,-1.875,-19.0625,0.986084,0.165588,0.016846,0.0,0.0,0.02,0.06,-0.32,3.2,9.26,21
0.42746,-0.33,3.22,9.33,-0.125,-0.125,0.25,4.875,76.5625,-14.75,360.0,-1.875,-19.0625,0.986084,0.165588,0.016846,0.0,0.0,0.01,0.04,-0.32,3.2,9.26,21
0.438421,-0.33,3.21,9.3,-0.125,-0.4375,0.25,4.875,76.5625,-14.75,360.0,-1.875,-19.0625,0.986084,0.165588,0.016846,0.0,0.0,0.01,0.03,-0.32,3.2,9.26,21
0.449381,-0.32,3.21,9.32,0.0,-0.375,0.25,4.875,76.5625,-14.75,360.0,-1.875,-19.0625,0.986084,0.165588,0.016846,0.0,0.0,0.01,0.05,-0.32,3.2,9.26,21
0.460342,-0.33,3.19,9.3,0.0,-0.3125,0.3125,6.0,77.75,-15.5625,360.0,-1.875,-19.0625,0.986084,0.165588,0.016846,0.0,0.0,0.0,0.04,-0.32,3.2,9.26,21
0.471302,-0.31,3.19,9.3,-0.0625,-0.3125,0.1875,6.0,77.75,-15.5625,360.0,-1.875,-19.0625,0.986084,0.165588,0.016846,0.0,0.0,0.01,0.02,-0.32,3.2,9.26,21
0.482263,-0.32,3.21,9.28,0.0,-0.1875,0.1875,6.0,77.75,-15.5625,360.0,-1.875,-19.0625,0.986084,0.165588,0.016846,0.0,0.0,0.0,0.04,-0.32,3.2,9.26,21
0.493223,-0.32,3.2,9.3,0.125,0.0,0.3125,6.0,77.75,-15.5625,360.0,-1.875,-19.0625,0.986084,0.165588,0.016846,0.0,0.0,0.01,0.04,-0.32,3.2,9.26,21
0.504184,-0.32,3.21,9.3,0.0,0.0,0.25,6.0,77.75,-15.5625,360.0,-1.875,-19.0625,0.986084,0.165588,0.016846,0.0,0.0,0.01,0.04,-0.32,3.2,9.26,21
0.515145,-0.32,3.19,9.32,-0.0625,-0.3125,0.1875,5.25,77.75,-15.1875,359.9375,-1.875,-19.0625,0.986084,0.165588,0.016846,0.0,0.0,0.0,0.06,-0.32,3.2,9.26,21
0.526105,-0.32,3.2,9.28,-0.1875,-0.3125,0.25,5.25,77.75,-15.1875,359.9375,-1.875,-19.0625,0.986084,0.165588,0.016846,0.0,0.0,0.0,0.02,-0.32,3.2,9.26,21
0.537066,-0.33,3.19,9.28,0.0625,-0.0625,0.25,5.25,77.75,-15.1875,359.9375,-1.875,-19.0625,0.986084,0.165588,0.016846,0.0,0.0,0.0,0.02,-0.32,3.2,9.26,21
0.548026,-0.33,3.2,9.3,-0.1875,-0.1875,0.1875,5.25,77.75,-15.1875,359.9375,-1.875,-19.0625,0.986084,0.165588,0.016846,0.0,0.0,0.0,0.04,-0.32,3.2,9.26,21
0.558987,-0.32,3.18,9.29,-0.0625,0.125,0.1875,2.25,78.75,-10.875,359.9375,-1.875,-19.0625,0.986084,0.165588,0.016846,0.0,0.0,0.0,0.03,-0.32,3.2,9.26,21
0.569947,-0.32,3.19,9.29,0.0,-0.3125,0.1875,2.25,78.75,-10.875,359.9375,-1.875,-19.0625,0.986084,0.165588,0.016846,0.0,0.0,0.01,0.01,-0.32,3.2,9.26,21
0.580908,-0.32,3.21,9.27,-0.125,-0.3125,0.1875,2.25,78.75,-10.875,359.9375,-1.875,-19.0625,0.986084,0.165588,0.016846,0.0,0.0,0.01,0.04,-0.32,3.2,9.26,21
0.591868,-0.32,3.21,9.3,-0.125,-0.25,0.25,2.25,78.75,-10.875,359.9375,-1.875,-19.0625,0.986084,0.165588,0.016846,0.0,0.0,0.01,0.05,-0.32,3.2,9.26,21
0.602829,-0.32,3.21,9.32,-0.0625,-0.1875,0.1875,1.875,78.5,-10.5,359.9375,-1.875,-19.0625,0.986084,0.165588,0.016846,0.0,0.0,0.01,0.04,-0.32,3.2,9.26,21
0.613789,-0.33,3.19,9.3,-0.1875,-0.4375,0.125,1.875,78.5,-10.5,359.9375,-1.875,-19.0625,0.986084,0.165588,0.016846,0.0,0.0,0.0,0.04,-0.32,3.2,9.26,21
0.62475,-0.32,3.17,9.3,-0.125,-0.5,0.125,1.875,78.5,-10.5,359.9375,-1.875,-19.0625,0.986084,0.165588,0.016846,0.0,0.01,-0.01,0.02,-0.32,3.2,9.26,21
0.63571,-0.3,3.18,9.28,-0.3125,-0.4375,0.3125,1.875,78.5,-10.5,359.9375,-1.875,-19.0625,0.986084,0.165588,0.016846,0.0,0.0,0.01,0.06,-0.32,3.2,9.26,21
0.646671,-0.31,3.21,9.32,0.0625,-0.3125,0.1875,1.875,78.5,-10.5,359.9375,-1.875,-19.0625,0.986084,0.165588,0.016846,0.0,0.0,0.01,0.06,-0.32,3.2,9.26,21
0.657631,-0.32,3.21,9.3,-0.125,-0.3125,0.1875,3.375,79.25,-12.0625,359.9375,-1.875,-19.0625,0.986084,0.165588,0.016846,0.0,0.0,0.01,0.04,-0.32,3.2,9.26,21
0.668592,-0.31,3.21,9.31,-0.1875,-0.375,0.1875,3.375,79.25,-12.0625,359.9375,-1.875,-19.0625,0.986084,0.165588,0.016846,0.0,0.0,0.02,0.02,-0.32,3.2,9.26,21
0.679552,-0.31,3.22,9.28,-0.0625,-0.5,0.3125,3.375,79.25,-12.0625,359.9375,-1.875,-19.0625,0.986084,0.165588,0.016846,0.0,0.0,0.0,0.04,-0.32,3.2,9.26,21
0.690513,-0.32,3.19,9.3,-0.0625,-0.1875,0.125,3.375,79.25,-12.0625,359.9375,-1.875,-19.0625,0.986084,0.165588,0.016846,0.0,0.0,0.0,0.06,-0.32,3.2,9.26,21
0.701473,-0.33,3.19,9.32,-0.1875,-0.3125,0.1875,4.875,77.75,-15.875,359.9375,-1.875,-19.0625,0.986084,0.165527,0.016846,0.0,0.0,0.0,0.04,-0.32,3.2,9.26,21
0.712434,-0.32,3.19,9.3,0.0625,-0.1875,0.1875,4.875,77.75,-15.875,359.9375,-1.875,-19.0625,0.986084,0.165527,0.016846,0.0,-0.01,0.03,0.05,-0.32,3.2,9.26,21
0.723394,-0.33,3.23,9.31,0.0,-0.3125,0.125,4.875,77.75,-15.875,359.9375,-1.875,-19.0625,0.986084,0.165527,0.016846,0.0,0.0,0.02,0.03,-0.32,3.2,9.26,21
0.734355,-0.32,3.22,9.29,-0.25,-0.3125,0.1875,4.875,77.75,-15.875,359.9375,-1.875,-19.0625,0.986084,0.165527,0.016846,0.0,0.0,0.0,0.04,-0.32,3.2,9.26,21
0.745315,-0.31,3.2,9.31,-0.0625,-0.3125,0.3125,4.875,77.75,-15.875,359.9375,-1.875,-19.0625,0.986084,0.165527,0.016846,0.0,0.0,0.0,0.04,-0.32,3.2,9.26,21
0.756276,-0.32,3.2,9.3,-0.0625,-0.4375,0.3125,6.375,77.75,-15.875,359.9375,-1.875,-19.0625,0.986084,0.165527,0.016846,0.0,0.0,0.02,0.02,-0.32,3.2,9.26,21
0.767237,-0.33,3.22,9.28,0.0625,-0.1875,0.25,6.375,77.75,-15.875,359.9375,-1.875,-19.0625,0.986084,0.165527,0.016846,0.0,0.0,-0.01,0.02,-0.32,3.2,9.26,21
0.778197,-0.33,3.18,9.28,-0.125,-0.4375,0.1875,6.375,77.75,-15.875,359.9375,-1.875,-19.0625,0.986084,0.165527,0.016846,0.0,0.0,0.01,0.03,-0.32,3.2,9.26,21
0.789158,-0.33,3.21,9.29,-0.0625,-0.3125,0.25,6.375,77.75,-15.875,359.9375,-1.875,-19.0625,0.986084,0.165527,0.016846,0.0,0.0,0.0,0.03,-0.32,3.2,9.26,21
0.800118,-0.33,3.2,9.29,-0.25,-0.3125,0.25,6.375,77.75,-15.875,359.9375,-1.875,-19.0625,0.986084,0.165527,0.016846,0.0,0.0,0.01,0.03,-0.32,3.2,9.26,21
0.811079,-0.33,3.21,9.29,-0.1875,-0.1875,0.1875,4.5,77.75,-15.875,359.9375,-1.875,-19.0625,0.986084,0.165527,0.016846,0.0,0.0,0.01,0.05,-0.32,3.2,9.26,21
0.822039,-0.32,3.21,9.31,-0.125,-0.25,0.3125,4.5,77.75,-15.875,359.9375,-1.875,-19.0625,0.986084,0.165527,0.016846,0.0,0.0,0.0,0.05,-0.32,3.2,9.26,21
0.833,-0.31,3.2,9.31,0.0,-0.4375,0.25,4.5,77.75,-15.875,359.9375,-1.875,-19.0625,0.986084,0.165527,0.016846,0.0,0.0,0.01,0.05,-0.32,3.2,9.26,21
0.84396,-0.33,3.21,9.31,-0.1875,-0.1875,0.0625,4.5,77.75,-15.875,359.9375,-1.875,-19.0625,0.986084,0.165527,0.016846,0.0,0.0,0.03,0.05,-0.32,3.2,9.26,21
0.854921,-0.33,3.23,9.32,-0.25,-0.1875,0.1875,4.5,77.75,-15.875,359.9375,-1.875,-19.0625,0.986084,0.165527,0.016846,0.0,0.0,0.01,0.04,-0.32,3.2,9.26,21
0.865881,-0.32,3.21,9.3,-0.0625,-0.25,0.1875,5.5625,78.5,-15.875,359.9375,-1.875,-19.0625,0.986084,0.165527,0.016846,0.0,0.0,0.0,0.04,-0.32,3.2,9.26,21
0.876842,-0.32,3.19,9.3,0.0,-0.125,0.125,5.5625,78.5,-15.875,359.9375,-1.875,-19.0625,0.986084,0.165527,0.016846,0.0,0.0,0.0,0.04,-0.32,3.2,9.26,21
0.887802,-0.31,3.2,9.31,0.0625,-0.1875,0.375,5.5625,78.5,-15.875,359.9375,-1.875,-19.0625,0.986084,0.165527,0.016846,0.0,0.0,-0.01,0.03,-0.32,3.2,9.26,21
0.898763,-0.32,3.18,9.29,-0.0625,-0.375,0.375,5.5625,78.5,-15.875,359.9375,-1.875,-19.0625,0.986084,0.165527,0.016846,0.0,0.0,0.01,0.03,-0.32,3.2,9.26,21
0.909723,-0.32,3.21,9.29,0.25,0.0,0.1875,5.5625,78.5,-15.875,359.9375,-1.875,-19.0625,0.986084,0.165527,0.016846,0.0,0.0,0.03,0.04,-0.32,3.2,9.26,21
0.920684,-0.32,3.23,9.3,-0.0625,-0.25,0.0625,6.375,77.0,-16.25,359.9375,-1.875,-19.0625,0.986084,0.165527,0.016846,0.0,-0.01,0.0,0.04,-0.32,3.2,9.26,21
0.931644,-0.33,3.19,9.33,-0.1875,-0.3125,0.25,6.375,77.0,-16.25,359.9375,-1.875,-19.0625,0.986084,0.165527,0.016846,0.0,0.0,0.0,0.06,-0.32,3.2,9.26,21
0.942605,-0.33,3.2,9.3,-0.1875,-0.25,0.1875,6.375,77.0,-16.25,359.9375,-1.875,-19.0625,0.986084,0.165527,0.016846,0.0,0.0,0.0,0.07,-0.32,3.2,9.26,21
0.953565,-0.33,3.19,9.34,-0.1875,-0.25,0.3125,6.375,77.0,-16.25,359.9375,-1.875,-19.0625,0.986084,0.165527,0.016846,0.0,0.0,0.01,0.05,-0.32,3.2,9.26,21
0.964526,-0.32,3.21,9.32,-0.0625,-0.125,0.125,6.0,77.375,-14.0,359.9375,-1.875,-19.0625,0.986084,0.165527,0.016846,0.0,0.0,0.0,0.03,-0.32,3.2,9.26,21
0.975486,-0.32,3.19,9.31,-0.0625,-0.375,0.1875,6.0,77.375,-14.0,359.9375,-1.875,-19.0625,0.986084,0.165527,0.016846,0.0,0.0,0.0,0.04,-0.32,3.2,9.26,21
0.986447,-0.33,3.21,9.27,0.0,-0.125,0.25,6.0,77.375,-14.0,359.9375,-1.875,-19.0625,0.986084,0.165527,0.016846,0.0,0.0,0.0,0.01,-0.32,3.2,9.26,21
0.997407,-0.31,3.2,9.27,-0.125,-0.1875,0.125,6.0,77.375,-14.0,359.9375,-1.875,-19.0625,0.986084,0.165527,0.016846,0.0,0.0,0.0,0.02,-0.32,3.2,9.26,21
1.008368,-0.32,3.19,9.28,-0.1875,-0.125,0.3125,6.0,77.375,-14.0,359.9375,-1.875,-19.0625,0.986084,0.165527,0.016846,0.0,0.0,0.0,0.02,-0.32,3.2,9.26,21
1.019328,-0.33,3.19,9.31,0.0,-0.0625,0.1875,6.0,77.375,-11.6875,359.9375,-1.875,-19.0625,0.986084,0.165527,0.016846,0.0,0.0,0.01,0.02,-0.32,3.2,9.26,21
1.030289,-0.31,3.21,9.28,-0.125,-0.25,0.1875,6.0,77.375,-11.6875,359.9375,-1.875,-19.0625,0.986084,0.165527,0.016846,0.0,0.0,0.0,0.03,-0.32,3.2,9.26,21
1.04125,-0.31,3.19,9.29,-0.375,-0.375,0.1875,6.0,77.375,-11.6875,359.9375,-1.875,-19.0625,0.986084,0.165527,0.016846,0.0,0.0,0.01,0.02,-0.32,3.2,9.26,21
1.05221,-0.32,3.21,9.28,-0.0625,-0.25,0.125,6.0,77.375,-11.6875,359.9375,-1.875,-19.0625,0.986084,0.165527,0.016846,0.0,0.0,0.0,0.04,-0.32,3.2,9.26,21
1.063171,-0.33,3.19,9.31,-0.1875,-0.0625,0.3125,3.0,78.5,-12.0625,359.9375,-1.875,-19.0625,0.986084,0.165527,0.016846,0.0,0.0,0.0,0.03,-0.32,3.2,9.26,21
1.074131,-0.32,3.19,9.29,-0.125,-0.0625,0.1875,3.0,78.5,-12.0625,359.9375,-1.875,-19.0625,0.986084,0.165527,0.016846,0.0,0.0,0.0,0.04,-0.32,3.2,9.26,21
1.085092,-0.33,3.2,9.3,-0.1875,-0.25,0.1875,3.0,78.5,-12.0625,359.9375,-1.875,-19.0625,0.986084,0.165527,0.016846,0.0,0.01,0.01,0.03,-0.32,3.2,9.26,21
1.096052,-0.31,3.21,9.29,-0.1875,-0.375,0.25,3.0,78.5,-12.0625,359.9375,-1.875,-19.0625,0.986084,0.165527,0.016846,0.0,0.0,0.01,0.05,-0.32,3.2,9.26,21
1.107013,-0.32,3.21,9.32,-0.1875,-0.5,0.125,3.0,78.5,-12.0625,359.9375,-1.875,-19.0625,0.986084,0.165527,0.016846,0.0,0.0,-0.01,0.03,-0.32,3.2,9.26,21
1.117973,-0.32,3.18,9.29,-0.25,-0.375,0.1875,1.875,78.0625,-10.0625,359.9375,-1.875,-19.0625,0.986084,0.165527,0.016846,0.0,0.0,0.01,0.06,-0.32,3.2,9.26,21
1.128934,-0.32,3.17,9.26,-0.1875,-0.1875,0.25,1.875,78.0625,-10.0625,359.9375,-1.875,-19.0625,0.986084,0.165527,0.016846,0.0,0.0,-0.02,0.0,-0.32,3.2,9.26,21
1.139894,-0.32,3.19,9.23,-0.125,-0.375,0.125,1.875,78.0625,-10.0625,359.9375,-1.875,-19.0625,0.986084,0.165527,0.016846,0.0,0.0,0.0,0.0,-0.32,3.2,9.26,21
1.150855,-0.32,3.19,9.25,0.0,-0.375,0.1875,1.875,78.0625,-10.0625,359.9375,-1.875,-19.0625,0.986084,0.165527,0.016846,0.0,0.0,0.0,0.01,-0.32,3.2,9.26,21
1.161815,-0.32,3.2,9.27,-0.125,-0.125,0.125,1.875,78.0625,-10.0625,359.9375,-1.875,-19.0625,0.986084,0.165527,0.016846,0.0,0.0,0.0,0.01,-0.32,3.2,9.26,21
1.172776,-0.32,3.2,9.27,0.0625,-0.125,0.3125,2.5625,78.5,-11.25,359.9375,-1.875,-19.0625,0.986084,0.165527,0.016846,0.0,0.0,-0.01,0.0,-0.32,3.2,9.26,21
1.183736,-0.31,3.18,9.25,0.0625,-0.375,0.1875,2.5625,78.5,-11.25,359.9375,-1.875,-19.0625,0.986084,0.165527,0.016846,0.0,0.0,0.0,0.0,-0.32,3.2,9.26,21
1.194697,-0.33,3.19,9.25,-0.0625,-0.25,0.25,2.5625,78.5,-11.25,359.9375,-1.875,-19.0625,0.986084,0.165527,0.016846,0.0,0.0,0.0,0.0,-0.32,3.2,9.26,21
1.205657,-0.33,3.2,9.26,-0.1875,-0.25,0.1875,2.5625,78.5,-11.25,359.9375,-1.875,-19.0625,0.986084,0.165527,0.016846,0.0,0.0,-0.01,-0.01,-0.32,3.2,9.26,21
1.216618,-0.32,3.18,9.25,0.0,-0.1875,0.3125,5.25,77.375,-15.875,359.9375,-1.875,-19.0625,0.986084,0.165527,0.016846,0.0,0.0,-0.01,0.02,-0.32,3.2,9.26,21
1.227578,-0.32,3.18,9.29,0.0,0.25,0.0625,5.25,77.375,-15.875,359.9375,-1.875,-19.0625,0.986084,0.165527,0.016846,0.0,0.0,0.0,0.0,-0.32,3.2,9.26,21
1.238539,-0.32,3.2,9.26,-0.125,-0.125,0.25,5.25,77.375,-15.875,359.9375,-1.875,-19.0625,0.986084,0.165527,0.016846,0.0,0.0,0.0,-0.03,-0.32,3.2,9.26,21
1.249499,-0.32,3.18,9.26,-0.0625,-0.1875,0.125,5.25,77.375,-15.875,359.9375,-1.875,-19.0625,0.986084,0.165527,0.016846,0.0,0.0,-0.01,0.0,-0.32,3.2,9.26,21
1.26046,-0.32,3.2,9.25,-0.375,-0.1875,0.25,5.25,77.375,-15.875,359.9375,-1.875,-19.0625,0.986084,0.165527,0.016846,0.0,0.0,0.0,0.0,-0.32,3.2,9.26,21
1.27142,-0.32,3.18,9.25,-0.375,-0.375,0.25,5.5625,77.75,-16.25,359.9375,-1.875,-19.0625,0.986084,0.165527,0.016846,0.0,0.0,-0.02,0.01,-0.32,3.2,9.26,21
1.282381,-0.33,3.17,9.27,0.0,-0.1875,0.1875,5.5625,77.75,-16.25,359.9375,-1.875,-19.0625,0.986084,0.165527,0.016846,0.0,0.0,0.01,0.0,-0.32,3.2,9.26,21
1.293342,-0.32,3.21,9.25,-0.3125,-0.25,0.25,5.5625,77.75,-16.25,359.9375,-1.875,-19.0625,0.986084,0.165527,0.016846,0.0,0.0,0.0,0.0,-0.32,3.2,9.26,21
1.304302,-0.32,3.2,9.26,-0.125,-0.25,0.1875,5.5625,77.75,-16.25,359.9375,-1.875,-19.0625,0.986084,0.165527,0.016846,0.0,0.0,-0.01,0.02,-0.32,3.2,9.26,21
1.315263,-0.32,3.18,9.29,-0.25,-0.0625,0.25,6.0,77.375,-15.1875,359.9375,-1.875,-19.0625,0.986084,0.165527,0.016846,0.0,0.0,0.0,0.03,-0.32,3.2,9.26,21
1.326223,-0.32,3.18,9.26,-0.3125,-0.5,0.25,6.0,77.375,-15.1875,359.9375,-1.875,-19.0625,0.986084,0.165527,0.016846,0.0,0.0,-0.01,0.0,-0.32,3.2,9.26,21
1.337184,-0.32,3.18,9.25,-0.125,-0.4375,0.375,6.0,77.375,-15.1875,359.9375,-1.875,-19.0625,0.986084,0.165527,0.016846,0.0,0.0,-0.01,0.0,-0.32,3.2,9.26,21
1.348144,-0.31,3.18,9.26,0.0,-0.1875,0.0625,6.0,77.375,-15.1875,359.9375,-1.875,-19.0625,0.986084,0.165527,0.016846,0.0,0.0,0.0,0.01,-0.32,3.2,9.26,21
1.359105,-0.31,3.19,9.27,0.0,-0.4375,0.125,5.5625,78.5,-15.1875,359.9375,-1.875,-19.0625,0.986084,0.165527,0.016846,0.0,0.0,0.0,0.0,-0.32,3.2,9.26,21
1.370065,-0.32,3.19,9.26,-0.125,-0.25,0.125,5.5625,78.5,-15.1875,359.9375,-1.875,-19.0625,0.986084,0.165527,0.016846,0.0,0.0,0.0,0.01,-0.32,3.2,9.26,21
1.381026,-0.31,3.2,9.27,-0.125,-0.3125,0.125,5.5625,78.5,-15.1875,359.9375,-1.875,-19.0625,0.986084,0.165527,0.016846,0.0,0.0,-0.02,0.0,-0.32,3.2,9.26,21
1.391986,-0.31,3.17,9.25,-0.0625,-0.25,0.1875,5.5625,78.5,-15.1875,359.9375,-1.875,-19.0625,0.986084,0.165527,0.016846,0.0,0.0,0.0,0.0,-0.32,3.2,9.26,21
1.402947,-0.32,3.19,9.26,-0.25,-0.625,0.1875,5.5625,78.5,-15.1875,0.0,-1.875,-19.0625,0.986084,0.165527,0.016785,0.0,0.0,-0.01,0.02,-0.32,3.2,9.26,21
1.413907,-0.32,3.18,9.29,-0.1875,-0.5625,0.3125,4.875,77.375,-15.1875,0.0,-1.875,-19.0625,0.986084,0.165527,0.016785,0.0,0.0,0.0,0.0,-0.32,3.2,9.26,21
1.424868,-0.31,3.19,9.26,0.125,-0.375,0.1875,4.875,77.375,-15.1875,0.0,-1.875,-19.0625,0.986084,0.165527,0.016785,0.0,0.0,-0.01,0.0,-0.32,3.2,9.26,21
1.435828,-0.33,3.18,9.26,0.0625,-0.375,0.25,4.875,77.375,-15.1875,0.0,-1.875,-19.0625,0.986084,0.165527,0.016785,0.0,0.0,0.0,0.0,-0.32,3.2,9.26,21
1.446789,-0.32,3.2,9.25,-0.1875,-0.25,0.3125,4.875,77.375,-15.1875,0.0,-1.875,-19.0625,0.986084,0.165527,0.016785,0.0,0.0,0.0,-0.01,-0.32,3.2,9.26,21
1.457749,-0.32,3.2,9.24,0.0,-0.0625,0.1875,4.875,77.375,-15.1875,0.0,-1.875,-19.0625,0.986084,0.165527,0.016785,0.0,0.0,0.0,-0.01,-0.32,3.2,9.26,21
1.46871,-0.31,3.2,9.25,0.0,-0.125,0.1875,1.875,78.875,-11.25,0.0,-1.875,-19.0625,0.986084,0.165527,0.016785,0.0,0.0,-0.01,0.02,-0.32,3.2,9.26,21
1.47967,-0.33,3.18,9.28,-0.125,-0.25,0.1875,1.875,78.875,-11.25,0.0,-1.875,-19.0625,0.986084,0.165527,0.016785,0.0,0.0,0.0,-0.02,-0.32,3.2,9.26,21
1.490631,-0.32,3.2,9.23,0.0625,-0.1875,0.3125,1.875,78.875,-11.25,0.0,-1.875,-19.0625,0.986084,0.165527,0.016785,0.0,0.0,-0.01,-0.01,-0.32,3.2,9.26,21
1.501591,-0.32,3.18,9.25,-0.125,-0.3125,0.1875,1.875,78.875,-11.25,0.0,-1.875,-19.0625,0.986084,0.165527,0.016785,0.0,0.0,0.0,-0.01,-0.32,3.2,9.26,21
1.512552,-0.32,3.19,9.24,-0.1875,-0.4375,0.25,1.875,78.875,-11.25,0.0,-1.875,-19.0625,0.986084,0.165527,0.016785,0.0,0.0,0.01,0.0,-0.32,3.2,9.26,21
1.523512,-0.32,3.21,9.26,-0.0625,-0.25,0.1875,3.375,78.875,-10.875,0.0,-1.875,-19.0625,0.986084,0.165527,0.016785,0.0,0.0,0.0,0.0,-0.32,3.2,9.26,21
1.534473,-0.33,3.19,9.25,0.0625,-0.4375,0.3125,3.375,78.875,-10.875,0.0,-1.875,-19.0625,0.986084,0.165527,0.016785,0.0,0.0,0.0,0.02,-0.32,3.2,9.26,21
1.545434,-0.32,3.2,9.28,-0.1875,-0.375,0.3125,3.375,78.875,-10.875,0.0,-1.875,-19.0625,0.986084,0.165527,0.016785,0.0,0.0,-0.01,-0.02,-0.32,3.2,9.26,21
1.556394,-0.33,3.18,9.23,-0.1875,-0.1875,0.3125,3.375,78.875,-10.875,0.0,-1.875,-19.0625,0.986084,0.165527,0.016785,0.0,0.0,0.0,0.01,-0.32,3.2,9.26,21
1.567355,-0.32,3.19,9.27,0.0,-0.0625,0.25,3.375,78.875,-10.875,0.0,-1.875,-19.0625,0.986084,0.165527,0.016785,0.0,0.0,0.01,0.0,-0.32,3.2,9.26,21
1.578315,-0.33,3.21,9.26,0.0,-0.1875,0.125,0.75,79.25,-10.5,0.0,-1.875,-19.0625,0.986084,0.165527,0.016785,0.0,-0.01,0.0,0.0,-0.32,3.2,9.26,21
1.589276,-0.31,3.18,9.27,0.0,-0.0625,0.25,0.75,79.25,-10.5,0.0,-1.875,-19.0625,0.986084,0.165527,0.016785,0.0,0.0,-0.01,0.01,-0.32,3.2,9.26,21
1.600236,-0.33,3.17,9.25,0.0,-0.0625,0.3125,0.75,79.25,-10.5,0.0,-1.875,-19.0625,0.986084,0.165527,0.016785,0.0,0.0,0.0,0.0,-0.32,3.2,9.26,21
1.611197,-0.32,3.19,9.26,-0.125,-0.25,0.125,0.75,79.25,-10.5,0.0,-1.875,-19.0625,0.986084,0.165527,0.016785,0.0,0.0,0.0,0.01,-0.32,3.2,9.26,21
1.622157,-0.31,3.19,9.27,0.0,-0.25,0.1875,0.75,79.25,-10.5,0.0,-1.875,-19.0625,0.986084,0.165527,0.016785,0.0,0.0,0.0,0.01,-0.32,3.2,9.26,21
1.633118,-0.32,3.2,9.28,-0.125,-0.1875,0.1875,2.25,78.5,-12.0625,0.0,-1.875,-19.0625,0.986084,0.165527,0.016785,0.0,-0.01,0.0,0.0,-0.32,3.2,9.26,21
1.644078,-0.33,3.2,9.25,-0.375,-0.3125,0.1875,2.25,78.5,-12.0625,0.0,-1.875,-19.0625,0.986084,0.165527,0.016785,0.0,0.0,-0.01,-0.01,-0.32,3.2,9.26,21
1.655039,-0.32,3.18,9.24,-0.125,-0.5,0.1875,2.25,78.5,-12.0625,0.0,-1.875,-19.0625,0.986084,0.165527,0.016785,0.0,-0.01,0.0,0.0,-0.32,3.2,9.26,21
1.665999,-0.33,3.2,9.26,-0.1875,-0.3125,0.25,2.25,78.5,-12.0625,0.0,-1.875,-19.0625,0.986084,0.165527,0.016785,0.0,-0.01,-0.01,0.0,-0.32,3.2,9.26,21
1.67696,-0.33,3.18,9.26,-0.0625,-0.25,0.25,2.25,78.0625,-10.5,0.0,-1.875,-19.0625,0.986084,0.165527,0.016785,0.0,0.0,0.0,0.02,-0.32,3.2,9.26,21
1.68792,-0.32,3.19,9.29,0.0,-0.1875,0.25,2.25,78.0625,-10.5,0.0,-1.875,-19.0625,0.986084,0.165527,0.016785,0.0,0.0,0.0,0.01,-0.32,3.2,9.26,21
1.698881,-0.32,3.19,9.27,-0.5,-0.4375,0.25,2.25,78.0625,-10.5,0.0,-1.875,-19.0625,0.986084,0.165527,0.016785,0.0,0.0,0.0,0.0,-0.32,3.2,9.26,21
1.709841,-0.32,3.2,9.26,-0.25,-0.25,0.1875,2.25,78.0625,-10.5,0.0,-1.875,-19.0625,0.986084,0.165527,0.016785,0.0,0.0,0.0,0.01,-0.32,3.2,9.26,21
1.720802,-0.32,3.2,9.27,-0.25,-0.0625,0.3125,2.25,78.0625,-10.5,0.0,-1.875,-19.0625,0.986084,0.165527,0.016785,0.0,0.0,-0.01,0.01,-0.32,3.2,9.26,21
1.731762,-0.32,3.18,9.27,-0.0625,-0.0625,0.125,1.875,78.0625,-11.6875,0.0,-1.875,-19.0625,0.986084,0.165527,0.016785,0.0,0.0,0.0,0.01,-0.32,3.2,9.26,21
1.742723,-0.32,3.19,9.27,-0.125,-0.25,0.1875,1.875,78.0625,-11.6875,0.0,-1.875,-19.0625,0.986084,0.165527,0.016785,0.0,0.0,0.0,0.02,-0.32,3.2,9.26,21
1.753683,-0.33,3.19,9.28,-0.125,-0.25,0.1875,1.875,78.0625,-11.6875,0.0,-1.875,-19.0625,0.986084,0.165527,0.016785,0.0,0.0,0.0,0.0,-0.32,3.2,9.26,21
1.764644,-0.32,3.17,9.27,0.0,-0.125,0.125,1.875,78.0625,-11.6875,0.0,-1.875,-19.0625,0.986084,0.165527,0.016785,0.0,0.0,-0.02,0.01,-0.32,3.2,9.26,21
1.775604,-0.31,3.2,9.26,-0.125,-0.25,0.25,1.875,78.0625,-11.6875,0.0,-1.875,-19.0625,0.986084,0.165527,0.016785,0.0,0.0,0.0,0.0,-0.32,3.2,9.26,21
1.786565,-0.32,3.19,9.27,-0.125,-0.1875,0.25,1.5,78.0625,-10.875,0.0,-1.875,-19.0625,0.986084,0.165527,0.016785,0.0,0.0,-0.02,0.0,-0.32,3.2,9.26,21
1.797526,-0.32,3.17,9.26,-0.25,-0.3125,0.125,1.5,78.0625,-10.875,0.0,-1.875,-19.0625,0.986084,0.165527,0.016785,0.0,0.0,-0.01,0.0,-0.32,3.2,9.26,21
1.808486,-0.32,3.18,9.26,-0.125,-0.25,0.0625,1.5,78.0625,-10.875,0.0,-1.875,-19.0625,0.986084,0.165527,0.016785,0.0,0.0,-0.01,0.0,-0.32,3.2,9.26,21
1.819447,-0.31,3.18,9.26,-0.0625,-0.125,0.25,1.5,78.0625,-10.875,0.0,-1.875,-19.0625,0.986084,0.165527,0.016785,0.0,0.0,0.01,0.01,-0.32,3.2,9.26,21
1.830407,-0.31,3.21,9.27,-0.0625,-0.25,0.125,1.5,78.0625,-10.875,0.0,-1.875,-19.0625,0.986084,0.165527,0.016785,0.0,0.0,0.01,0.01,-0.32,3.2,9.26,21
1.841368,-0.33,3.21,9.25,-0.1875,-0.3125,0.1875,0.75,78.5,-12.375,0.0,-1.875,-19.0625,0.986084,0.165527,0.016785,0.0,0.0,-0.01,0.01,-0.32,3.2,9.26,21
1.852328,-0.32,3.18,9.27,-0.125,-0.4375,0.25,0.75,78.5,-12.375,0.0,-1.875,-19.0625,0.986084,0.165527,0.016785,0.0,0.0,0.0,0.01,-0.32,3.2,9.26,21
1.863289,-0.32,3.2,9.27,-0.0625,-0.1875,0.25,0.75,78.5,-12.375,0.0,-1.875,-19.0625,0.986084,0.165527,0.016785,0.0,0.0,0.0,0.0,-0.32,3.2,9.26,21
1.874249,-0.32,3.19,9.26,-0.25,-0.3125,0.3125,0.75,78.5,-12.375,0.0,-1.875,-19.0625,0.986084,0.165527,0.016785,0.0,-0.01,0.0,-0.01,-0.32,3.2,9.26,21
1.88521,-0.33,3.2,9.25,-0.1875,-0.125,0.1875,1.0625,78.5,-12.0625,0.0,-1.875,-19.0625,0.986084,0.165527,0.016785,0.0,0.01,-0.02,0.01,-0.32,3.2,9.26,21
1.89617,-0.33,3.2,9.25,0.0625,-0.25,0.1875,1.0625,78.5,-12.0625,0.0,-1.875,-19.0625,0.986084,0.165527,0.016785,0.0,0.0,0.0,0.0,-0.32,3.2,9.26,21
1.907131,-0.31,3.2,9.25,-0.0625,-0.125,0.25,1.0625,78.5,-12.0625,0.0,-1.875,-19.0625,0.986084,0.165527,0.016785,0.0,0.0,0.0,0.01,-0.32,3.2,9.26,21
1.918091,-0.32,3.2,9.27,-0.0625,-0.25,0.25,1.0625,78.5,-12.0625,0.0,-1.875,-19.0625,0.986084,0.165527,0.016785,0.0,-0.01,0.01,0.02,-0.32,3.2,9.26,21
1.929052,-0.33,3.21,9.29,-0.1875,-0.25,0.125,1.0625,78.5,-12.0625,0.0,-1.875,-19.0625,0.986084,0.165527,0.016785,0.0,-0.01,0.01,0.02,-0.32,3.2,9.26,21
1.940012,-0.33,3.22,9.28,-0.125,-0.25,0.0625,2.25,78.0625,-10.875,0.0,-1.875,-19.0625,0.986084,0.165527,0.016785,0.0,0.0,-0.01,0.0,-0.32,3.2,9.26,21
1.950973,-0.32,3.18,9.26,-0.1875,-0.625,0.1875,2.25,78.0625,-10.875,0.0,-1.875,-19.0625,0.986084,0.165527,0.016724,0.0,0.0,0.0,-0.01,-0.32,3.2,9.26,21
1.961933,-0.32,3.2,9.24,-0.1875,-0.4375,0.125,2.25,78.0625,-10.875,0.0,-1.875,-19.0625,0.986084,0.165527,0.016724,0.0,0.0,0.01,0.0,-0.32,3.2,9.26,21
1.972894,-0.32,3.21,9.25,-0.3125,-0.25,0.25,2.25,78.0625,-10.875,0.0,-1.875,-19.0625,0.986084,0.165527,0.016724,0.0,0.0,0.0,0.01,-0.32,3.2,9.26,21
1.983854,-0.33,3.2,9.27,-0.1875,0.0625,0.1875,1.0625,78.875,-11.25,0.0,-1.875,-19.0625,0.986084,0.165527,0.016724,0.0,0.0,-0.01,0.01,-0.32,3.2,9.26,21
1.994815,-0.32,3.18,9.27,0.0,-0.4375,0.3125,1.0625,78.875,-11.25,0.0,-1.875,-19.0625,0.986084,0.165527,0.016724,0.0,0.0,0.0,0.03,-0.32,3.2,9.26,21
2.005775,-0.31,3.2,9.29,0.1875,-0.1875,0.25,1.0625,78.875,-11.25,0.0,-1.875,-19.0625,0.986084,0.165527,0.016724,0.0,0.0,-0.02,0.0,-0.32,3.2,9.26,21
2.016736,-0.32,3.17,9.25,-0.1875,-0.375,0.3125,1.0625,78.875,-11.25,0.0,-1.875,-19.0625,0.986084,0.165527,0.016724,0.0,0.0,0.0,0.04,-0.32,3.2,9.26,21
2.027696,-0.33,3.19,9.31,0.0625,-0.125,0.125,1.0625,78.875,-11.25,0.0,-1.875,-19.0625,0.986084,0.165527,0.016724,0.0,0.0,0.0,0.02,-0.32,3.2,9.26,21
2.038657,-0.32,3.19,9.28,-0.0625,-0.375,0.1875,1.0625,78.0625,-10.0625,0.0,-1.875,-19.0625,0.986084,0.165527,0.016724,0.0,0.01,0.0,0.01,-0.32,3.2,9.26,21
2.049618,-0.32,3.18,9.24,-0.1875,-0.375,0.1875,1.0625,78.0625,-10.0625,0.0,-1.875,-19.0625,0.986084,0.165527,0.016724,0.0,0.0,-0.01,-0.02,-0.32,3.2,9.26,21
2.060578,-0.32,3.17,9.23,-0.125,-0.125,0.3125,1.0625,78.0625,-10.0625,0.0,-1.875,-19.0625,0.986084,0.165527,0.016724,0.0,0.0,0.0,0.0,-0.32,3.2,9.26,21
2.071539,-0.32,3.2,9.25,-0.1875,-0.3125,0.25,1.0625,78.0625,-10.0625,0.0,-1.875,-19.0625,0.986084,0.165527,0.016724,0.0,0.0,-0.02,0.02,-0.32,3.2,9.26,21
2.082499,-0.32,3.17,9.28,-0.1875,-0.5,0.375,1.0625,78.0625,-10.0625,0.0,-1.875,-19.0625,0.986084,0.165527,0.016724,0.0,0.0,-0.02,0.02,-0.32,3.2,9.26,21
2.09346,-0.32,3.19,9.27,0.0625,-0.125,0.0625,3.0,77.75,-11.6875,0.0,-1.875,-19.0625,0.986084,0.165527,0.016724,0.0,0.0,-0.01,0.0,-0.32,3.2,9.26,21
2.10442,-0.32,3.18,9.26,-0.125,0.0625,0.0,3.0,77.75,-11.6875,0.0,-1.875,-19.0625,0.986084,0.165527,0.016724,0.0,0.0,0.0,0.0,-0.32,3.2,9.26,21
2.115381,-0.32,3.19,9.25,0.1875,0.1875,0.0,3.0,77.75,-11.6875,0.0,-1.875,-19.0625,0.986084,0.165527,0.016724,0.0,0.0,0.01,0.0,-0.32,3.2,9.26,21
2.126341,-0.32,3.21,9.26,0.0,0.25,-0.0625,3.0,77.75,-11.6875,0.0,-1.875,-19.0625,0.986084,0.165527,0.016724,0.0,0.0,0.0,0.02,-0.32,3.2,9.26,21
2.137302,-0.32,3.19,9.28,0.0,0.1875,0.0,3.375,80.0,-10.5,0.0,-1.875,-19.0625,0.986084,0.165527,0.016724,0.0,0.0,0.0,0.0,-0.32,3.2,9.26,21
2.148262,-0.32,3.2,9.26,0.0,0.0625,0.0625,3.375,80.0,-10.5,0.0,-1.875,-19.0625,0.986084,0.165527,0.016724,0.0,0.0,0.0,0.02,-0.32,3.2,9.26,21
2.159223,-0.32,3.19,9.28,-0.125,-0.0625,0.0625,3.375,80.0,-10.5,0.0,-1.875,-19.0625,0.986084,0.165527,0.016724,0.0,0.0,-0.01,0.01,-0.32,3.2,9.26,21
2.170183,-0.32,3.18,9.27,-0.125,-0.125,0.0625,3.375,80.0,-10.5,0.0,-1.875,-19.0625,0.986084,0.165527,0.016724,0.0,0.0,-0.01,0.01,-0.32,3.2,9.26,21
2.181144,-0.32,3.19,9.26,-0.125,-0.0625,0.125,3.375,80.0,-10.5,0.0,-1.875,-19.0625,0.986084,0.165527,0.016724,0.0,0.0,0.0,0.0,-0.32,3.2,9.26,21
2.192104,-0.32,3.22,9.27,0.0,-0.4375,0.0,1.5,78.875,-11.25,0.0,-1.875,-19.0625,0.986084,0.165527,0.016724,0.0,0.0,0.02,0.01,-0.32,3.2,9.26,21
2.203065,-0.32,3.16,9.27,0.0,-0.0625,0.0625,1.5,78.875,-11.25,0.0,-1.875,-19.0625,0.986084,0.165527,0.016724,0.0,0.0,-0.01,0.0,-0.32,3.2,9.26,21
2.214025,-0.32,3.18,9.25,0.0,-0.1875,0.125,1.5,78.875,-11.25,0.0,-1.875,-19.0625,0.986084,0.165527,0.016724,0.0,0.0,0.0,0.01,-0.32,3.2,9.26,21
2.224986,-0.32,3.19,9.27,-0.125,-0.125,0.0625,1.5,78.875,-11.25,0.0,-1.875,-19.0625,0.986084,0.165527,0.016724,0.0,0.0,0.0,0.01,-0.32,3.2,9.26,21
2.235946,-0.31,3.19,9.27,-0.0625,0.0,-0.125,1.5,78.875,-11.25,0.0,-1.875,-19.0625,0.986084,0.165527,0.016724,0.0,0.0,0.0,0.01,-0.32,3.2,9.26,21
2.246907,-0.33,3.18,9.26,0.0625,0.125,-0.125,1.5,79.25,-11.25,0.0,-1.875,-19.0625,0.986084,0.165527,0.016724,0.0,0.0,-0.01,-0.01,-0.32,3.2,9.26,21
2.257867,-0.33,3.18,9.25,-0.1875,0.25,-0.125,1.5,79.25,-11.25,0.0,-1.875,-19.0625,0.986084,0.165527,0.016724,0.0,0.0,-0.02,0.0,-0.32,3.2,9.26,21
2.268828,-0.32,3.17,9.26,0.1875,0.125,-0.0625,1.5,79.25,-11.25,0.0,-1.875,-19.0625,0.986084,0.165527,0.016724,0.0,0.0,-0.01,0.0,-0.32,3.2,9.26,21
2.279788,-0.33,3.18,9.25,0.1875,0.0625,-0.0625,1.5,79.25,-11.25,0.0,-1.875,-19.0625,0.986084,0.165527,0.016724,0.0,0.0,0.0,0.0,-0.32,3.2,9.26,21
2.290749,-0.32,3.2,9.26,0.0625,-0.125,0.0625,1.0625,78.0625,-11.6875,0.0,-1.875,-19.0625,0.986084,0.165527,0.016724,0.0,0.0,0.0,0.02,-0.32,3.2,9.26,21
2.30171,-0.31,3.19,9.28,-0.125,-0.125,-0.125,1.0625,78.0625,-11.6875,0.0,-1.875,-19.0625,0.986084,0.165527,0.016724,0.0,0.0,0.0,0.02,-0.32,3.2,9.26,21
2.31267,-0.32,3.18,9.29,-0.0625,0.0625,0.0,1.0625,78.0625,-11.6875,0.0,-1.875,-19.0625,0.986084,0.165527,0.016724,0.0,0.0,-0.02,0.0,-0.32,3.2,9.26,21
2.323631,-0.32,3.17,9.25,0.125,0.25,0.0625,1.0625,78.0625,-11.6875,0.0,-1.875,-19.0625,0.986084,0.165527,0.016724,0.0,0.0,0.02,0.0,-0.32,3.2,9.26,21
2.334591,-0.32,3.22,9.26,-0.1875,0.125,0.0625,1.0625,78.0625,-11.6875,0.0,-1.875,-19.0625,0.986084,0.165527,0.016724,0.0,0.0,0.02,0.0,-0.32,3.2,9.26,21
2.345552,-0.32,3.22,9.28,-0.375,-0.5,-0.0625,5.5625,76.25,-14.75,0.0,-1.875,-19.0625,0.986084,0.165527,0.016724,0.0,0.0,0.0,0.01,-0.32,3.2,9.26,21
2.356512,-0.32,3.2,9.27,-0.125,-0.0625,0.0,5.5625,76.25,-14.75,0.0,-1.875,-19.0625,0.986084,0.165527,0.016724,0.0,0.0,-0.01,-0.03,-0.32,3.2,9.26,21
2.367473,-0.31,3.18,9.23,0.25,0.25,0.0,5.5625,76.25,-14.75,0.0,-1.875,-19.0625,0.986084,0.165527,0.016724,0.0,-0.01,-0.01,0.01,-0.32,3.2,9.26,21
2.378433,-0.33,3.18,9.27,0.0,0.1875,0.0,5.5625,76.25,-14.75,0.0,-1.875,-19.0625,0.986084,0.165527,0.016724,0.0,0.0,0.0,0.02,-0.32,3.2,9.26,21
2.389394,-0.32,3.19,9.28,0.0,0.0,0.125,7.0625,77.0,-14.75,0.0,-1.875,-19.0625,0.986084,0.165527,0.016724,0.0,0.0,0.0,0.0,-0.32,3.2,9.26,21
2.400354,-0.33,3.19,9.26,0.0,-0.25,0.125,7.0625,77.0,-14.75,0.0,-1.875,-19.0625,0.986084,0.165527,0.016724,0.0,-0.01,-0.01,0.0,-0.32,3.2,9.26,21
2.411315,-0.33,3.18,9.25,-0.0625,0.0,0.0,7.0625,77.0,-14.75,0.0,-1.875,-19.0625,0.986084,0.165527,0.016724,0.0,0.0,0.0,0.02,-0.32,3.2,9.26,21
2.422275,-0.32,3.19,9.28,0.0625,0.3125,-0.0625,7.0625,77.0,-14.75,0.0,-1.875,-19.0625,0.986084,0.165527,0.016724,0.0,0.0,0.0,0.0,-0.32,3.2,9.26,21
2.433236,-0.32,3.19,9.26,-0.0625,0.1875,0.0625,7.0625,77.0,-14.75,0.0,-1.875,-19.0625,0.986084,0.165527,0.016724,0.0,0.0,-0.01,0.0,-0.32,3.2,9.26,21
2.444196,-0.32,3.18,9.25,0.0625,0.3125,0.0625,4.875,77.75,-16.0,0.0,-1.875,-19.0625,0.986084,0.165527,0.016724,0.0,0.0,0.0,0.0,-0.32,3.2,9.26,21
2.455157,-0.32,3.19,9.26,-0.0625,0.0625,0.0625,4.875,77.75,-16.0,0.0,-1.875,-19.0625,0.986084,0.165527,0.016724,0.0,0.0,-0.01,0.0,-0.32,3.2,9.26,21
2.466117,-0.31,3.18,9.25,-0.1875,0.0,0.0,4.875,77.75,-16.0,0.0,-1.875,-19.0625,0.986084,0.165527,0.016724,0.0,0.0,-0.01,-0.01,-0.32,3.2,9.26,21
2.477078,-0.32,3.18,9.25,-0.0625,-0.125,0.125,4.875,77.75,-16.0,0.0,-1.875,-19.0625,0.986084,0.165527,0.016724,0.0,0.0,0.0,0.0,-0.32,3.2,9.26,21
2.488038,-0.32,3.19,9.26,0.0,-0.125,0.0,4.875,77.75,-16.0,0.0,-1.875,-19.0625,0.986084,0.165527,0.016724,0.0,0.0,0.0,0.0,-0.32,3.2,9.26,21
2.498999,-0.31,3.19,9.26,0.0625,0.3125,0.0625,5.25,78.875,-11.25,0.0,-1.875,-19.0625,0.986084,0.165527,0.016724,0.0,0.0,0.0,0.01,-0.32,3.2,9.26,21
2.509959,-0.32,3.18,9.28,0.125,0.3125,0.0,5.25,78.875,-11.25,0.0,-1.875,-19.0625,0.986084,0.165527,0.016724,0.0,0.0,-0.01,0.02,-0.32,3.2,9.26,21
2.52092,-0.32,3.19,9.24,0.125,0.0,-0.0625,5.25,78.875,-11.25,0.0,-1.875,-19.0625,0.986084,0.165527,0.016724,0.0,0.0,-0.01,0.0,-0.32,3.2,9.26,21
2.53188,-0.32,3.18,9.25,0.0625,-0.0625,0.0625,5.25,78.875,-11.25,0.0,-1.875,-19.0625,0.986084,0.165527,0.016724,0.0,0.0,0.0,0.0,-0.32,3.2,9.26,21
2.542841,-0.31,3.19,9.26,0.25,0.0625,0.125,5.25,78.875,-11.25,0.0,-1.875,-19.0625,0.986084,0.165527,0.016724,0.0,0.0,0.0,0.0,-0.32,3.2,9.26,21
2.553802,-0.33,3.2,9.28,0.0625,-0.125,0.0,4.5,77.75,-10.5,0.0,-1.875,-19.0625,0.986084,0.165527,0.016724,0.0,0.0,-0.01,0.01,-0.32,3.2,9.26,21
2.564762,-0.32,3.18,9.27,-0.1875,0.0,0.0,4.5,77.75,-10.5,0.0,-1.875,-19.0625,0.986084,0.165527,0.016724,0.0,0.0,0.0,-0.01,-0.32,3.2,9.26,21
2.575723,-0.33,3.19,9.24,0.0,0.3125,0.0,4.5,77.75,-10.5,0.0,-1.875,-19.0625,0.986084,0.165527,0.016724,0.0,0.0,0.0,0.01,-0.32,3.2,9.26,21
2.586683,-0.31,3.19,9.26,-0.1875,-0.0625,-0.0625,4.5,77.75,-10.5,0.0,-1.875,-19.0625,0.986084,0.165527,0.016724,0.0,0.0,0.0,0.0,-0.32,3.2,9.26,21
2.597644,-0.32,3.21,9.25,0.0,0.1875,-0.0625,1.875,78.875,-14.0,0.0,-1.875,-19.0625,0.986084,0.165527,0.016724,0.0,0.0,0.01,0.0,-0.32,3.2,9.26,21
2.608604,-0.32,3.2,9.25,0.0,0.375,0.125,1.875,78.875,-14.0,0.0,-1.875,-19.0625,0.986084,0.165527,0.016724,0.0,0.0,0.0,0.03,-0.32,3.2,9.26,21
2.619565,-0.33,3.19,9.29,0.0625,0.1875,0.0625,1.875,78.875,-14.0,0.0,-1.875,-19.0625,0.986084,0.165527,0.016724,0.0,0.0,-0.01,0.02,-0.32,3.2,9.26,21
2.630525,-0.33,3.18,9.28,0.0,0.3125,0.125,1.875,78.875,-14.0,0.0,-1.875,-19.0625,0.986084,0.165527,0.016724,0.0,0.0,0.0,0.01,-0.32,3.2,9.26,21
2.641486,-0.32,3.19,9.27,0.0,0.125,0.0,1.875,78.875,-14.0,0.0,-1.875,-19.0625,0.986084,0.165527,0.016724,0.0,0.0,0.0,0.01,-0.32,3.2,9.26,21
2.652446,-0.33,3.19,9.24,0.375,0.1875,0.125,4.875,77.0,-16.0,0.0,-1.875,-19.0625,0.986084,0.165527,0.016724,0.0,-0.01,0.0,-0.01,-0.32,3.2,9.26,21
2.663407,-0.33,3.19,9.24,0.0,0.375,0.0,4.875,77.0,-16.0,0.0,-1.875,-19.0625,0.986084,0.165527,0.016724,0.0,0.0,-0.01,0.0,-0.32,3.2,9.26,21
2.674367,-0.32,3.18,9.25,-0.0625,0.3125,0.0625,4.875,77.0,-16.0,0.0,-1.875,-19.0625,0.986084,0.165527,0.016724,0.0,0.0,-0.01,-0.02,-0.32,3.2,9.26,21
2.685328,-0.32,3.18,9.23,-0.0625,0.125,0.0625,4.875,77.0,-16.0,0.0,-1.875,-19.0625,0.986084,0.165527,0.016724,0.0,0.0,0.0,0.02,-0.32,3.2,9.26,21
2.696288,-0.31,3.19,9.28,0.0,0.0,0.125,1.5,78.0625,-10.875,0.0,-1.875,-19.0625,0.986084,0.165527,0.016724,0.0,0.0,0.0,0.01,-0.32,3.2,9.26,21
2.707249,-0.32,3.2,9.27,0.0,-0.125,0.1875,1.5,78.0625,-10.875,0.0,-1.875,-19.0625,0.986084,0.165527,0.016724,0.0,0.0,-0.02,0.0,-0.32,3.2,9.26,21
2.718209,-0.32,3.17,9.25,0.1875,0.375,0.0625,1.5,78.0625,-10.875,0.0,-1.875,-19.0625,0.986084,0.165527,0.016724,0.0,-0.01,0.0,0.0,-0.32,3.2,9.26,21
2.72917,-0.33,3.2,9.26,-0.0625,-0.125,0.0625,1.5,78.0625,-10.875,0.0,-1.875,-19.0625,0.986084,0.165527,0.016724,0.0,0.0,0.01,-0.01,-0.32,3.2,9.26,21
2.74013,-0.33,3.19,9.25,0.0,0.1875,0.0,1.5,78.0625,-10.875,0.0,-1.875,-19.0625,0.986084,0.165527,0.016724,0.0,0.0,0.0,0.0,-0.32,3.2,9.26,21
2.751091,-0.33,3.17,9.27,0.125,0.0,0.0625,3.0,78.5,-10.5,0.0,-1.875,-19.0625,0.986084,0.165527,0.016724,0.0,0.0,-0.01,0.01,-0.32,3.2,9.26,21
2.762051,-0.31,3.18,9.27,0.0625,0.125,0.0625,3.0,78.5,-10.5,0.0,-1.875,-19.0625,0.986084,0.165527,0.016724,0.0,0.0,0.0,0.0,-0.32,3.2,9.26,21
2.773012,-0.31,3.19,9.25,-0.0625,0.0625,-0.125,3.0,78.5,-10.5,0.0,-1.875,-19.0625,0.986084,0.165527,0.016724,0.0,0.0,0.0,0.0,-0.32,3.2,9.26,21
2.783972,-0.33,3.2,9.26,0.0625,0.0625,0.0625,3.0,78.5,-10.5,0.0,-1.875,-19.0625,0.986084,0.165527,0.016724,0.0,0.0,0.0,0.0,-0.32,3.2,9.26,21
2.794933,-0.31,3.2,9.26,0.0,0.25,0.0625,3.0,78.5,-10.5,0.0,-1.875,-19.0625,0.986084,0.165527,0.016724,0.0,0.0,0.0,0.0,-0.32,3.2,9.26,21
2.805894,-0.32,3.17,9.28,0.0625,-0.0625,0.0625,0.75,78.5,-11.25,0.0,-1.875,-19.0625,0.986084,0.165527,0.016724,0.0,0.0,0.0,0.01,-0.32,3.2,9.26,21
2.816854,-0.32,3.2,9.27,0.0625,0.0625,0.0,0.75,78.5,-11.25,0.0,-1.875,-19.0625,0.986084,0.165527,0.016724,0.0,0.0,0.0,0.0,-0.32,3.2,9.26,21
2.827815,-0.32,3.2,9.26,0.0625,-0.125,0.0625,0.75,78.5,-11.25,0.0,-1.875,-19.0625,0.986084,0.165527,0.016724,0.0,0.0,0.0,0.02,-0.32,3.2,9.26,21
2.838775,-0.33,3.2,9.28,0.3125,-0.125,0.0,0.75,78.5,-11.25,0.0,-1.875,-19.0625,0.986084,0.165527,0.016724,0.0,0.0,-0.01,0.03,-0.32,3.2,9.26,21
2.849736,-0.32,3.18,9.3,-0.25,0.125,0.0625,1.875,78.5,-10.5,0.0,-1.875,-19.0625,0.986084,0.165527,0.016724,0.0,0.0,-0.01,0.01,-0.32,3.2,9.26,21
2.860696,-0.32,3.19,9.25,0.0625,-0.125,0.1875,1.875,78.5,-10.5,0.0,-1.875,-19.0625,0.986084,0.165527,0.016724,0.0,0.0,0.0,0.0,-0.32,3.2,9.26,21
2.871657,-0.32,3.2,9.27,-0.0625,0.0625,0.0625,1.875,78.5,-10.5,0.0,-1.875,-19.0625,0.986084,0.165527,0.016724,0.0,0.0,0.0,0.0,-0.32,3.2,9.26,21
2.882617,-0.32,3.19,9.26,-0.1875,0.25,0.0625,1.875,78.5,-10.5,0.0,-1.875,-19.0625,0.986084,0.165527,0.016724,0.0,0.0,-0.03,-0.01,-0.32,3.2,9.26,21
2.893578,-0.32,3.16,9.25,-0.125,-0.125,0.0,1.875,78.5,-10.5,0.0,-1.875,-19.0625,0.986084,0.165527,0.016724,0.0,0.0,-0.03,-0.01,-0.32,3.2,9.26,21
2.904538,-0.32,3.2,9.25,0.1875,-0.125,0.0625,2.5625,78.5,-10.875,0.0,-1.875,-19.0625,0.986084,0.165527,0.016724,0.0,0.0,0.0,-0.01,-0.32,3.2,9.26,21
2.915499,-0.32,3.2,9.25,0.0625,0.1875,0.0,2.5625,78.5,-10.875,0.0,-1.875,-19.0625,0.986084,0.165527,0.016724,0.0,0.0,-0.01,0.01,-0.32,3.2,9.26,21
2.926459,-0.31,3.18,9.27,0.125,-0.125,0.0,2.5625,78.5,-10.875,0.0,-1.875,-19.0625,0.986084,0.165527,0.016724,0.0,-0.01,0.0,0.0,-0.32,3.2,9.26,21
2.93742,-0.33,3.2,9.25,-0.0625,-0.125,0.125,2.5625,78.5,-10.875,0.0,-1.875,-19.0625,0.986084,0.165527,0.016724,0.0,0.0,-0.02,0.0,-0.32,3.2,9.26,21
2.94838,-0.33,3.17,9.26,0.0,0.125,0.0,1.875,78.875,-10.5,0.0,-1.875,-19.0625,0.986084,0.165527,0.016724,0.0,0.0,-0.02,0.02,-0.32,3.2,9.26,21
2.959341,-0.32,3.17,9.28,-0.0625,0.25,0.0,1.875,78.875,-10.5,0.0,-1.875,-19.0625,0.986084,0.165527,0.016724,0.0,0.0,0.01,-0.01,-0.32,3.2,9.26,21
2.970301,-0.32,3.21,9.24,0.1875,0.1875,-0.0625,1.875,78.875,-10.5,0.0,-1.875,-19.0625,0.986084,0.165527,0.016724,0.0,0.0,0.0,0.0,-0.32,3.2,9.26,22
2.981262,-0.32,3.19,9.26,0.1875,0.1875,0.0,1.875,78.875,-10.5,0.0,-1.875,-19.0625,0.986084,0.165527,0.016724,0.0,0.0,-0.01,-0.02,-0.32,3.2,9.26,22
2.992222,-0.32,3.19,9.24,-0.1875,0.1875,0.0625,1.875,78.875,-10.5,0.0,-1.875,-19.0625,0.986084,0.165527,0.016724,0.0,0.0,0.0,-0.01,-0.32,3.2,9.26,22
3.003183,-0.32,3.19,9.27,0.0625,-0.125,0.125,1.875,78.5,-11.25,0.0,-1.875,-19.0625,0.986084,0.165527,0.016724,0.0,0.0,0.0,0.01,-0.32,3.2,9.26,22
3.014143,-0.31,3.18,9.29,0.125,0.1875,0.0,1.875,78.5,-11.25,0.0,-1.875,-19.0625,0.986084,0.165527,0.016724,0.0,0.0,-0.02,0.0,-0.32,3.2,9.26,22
3.025104,-0.32,3.17,9.25,0.0,0.1875,-0.1875,1.875,78.5,-11.25,0.0,-1.875,-19.0625,0.986084,0.165527,0.016724,0.0,0.0,-0.01,0.0,-0.32,3.2,9.26,22
3.036064,-0.32,3.18,9.26,0.1875,0.125,-0.0625,1.875,78.5,-11.25,0.0,-1.875,-19.0625,0.986084,0.165527,0.016724,0.0,0.0,0.0,0.0,-0.32,3.2,9.26,22
3.047025,-0.32,3.2,9.26,0.125,0.0,0.0,1.875,78.5,-11.25,0.0,-1.875,-19.0625,0.986084,0.165527,0.016724,0.0,0.0,0.0,0.0,-0.32,3.2,9.26,22
3.057985,-0.32,3.22,9.25,0.125,0.0625,-0.0625,2.25,78.0625,-11.25,0.0,-1.875,-19.0625,0.986084,0.165527,0.016724,0.0,0.0,0.0,0.0,-0.32,3.2,9.26,22
3.068946,-0.32,3.2,9.26,0.0625,-0.125,0.0,2.25,78.0625,-11.25,0.0,-1.875,-19.0625,0.986084,0.165527,0.016724,0.0,0.0,-0.01,0.0,-0.32,3.2,9.26,22
3.079907,-0.31,3.18,9.26,0.25,0.0625,-0.0625,2.25,78.0625,-11.25,0.0,-1.875,-19.0625,0.986084,0.165527,0.016724,0.0,0.01,-0.01,0.0,-0.32,3.2,9.26,22
3.090867,-0.33,3.16,9.25,0.0,0.0,0.0625,2.25,78.0625,-11.25,0.0,-1.875,-19.0625,0.986084,0.165527,0.016724,0.0,0.0,-0.03,-0.01,-0.32,3.2,9.26,22
3.101828,-0.31,3.2,9.26,0.1875,0.4375,0.0625,1.5,78.875,-11.25,0.0,-1.875,-19.0625,0.986084,0.165527,0.016724,0.0,0.0,0.01,0.0,-0.32,3.2,9.26,22
3.112788,-0.32,3.21,9.26,0.0625,0.0625,0.0,1.5,78.875,-11.25,0.0,-1.875,-19.0625,0.986084,0.165527,0.016724,0.0,0.0,-0.02,-0.01,-0.32,3.2,9.26,22
3.123749,-0.32,3.17,9.25,0.0625,0.0,0.0625,1.5,78.875,-11.25,0.0,-1.875,-19.0625,0.986084,0.165527,0.016724,0.0,0.0,0.0,0.0,-0.32,3.2,9.26,22
3.134709,-0.31,3.19,9.25,0.25,0.1875,0.0625,1.5,78.875,-11.25,0.0,-1.875,-19.0625,0.986084,0.165527,0.016724,0.0,0.0,-0.02,0.01,-0.32,3.2,9.26,22
3.14567,-0.33,3.17,9.27,-0.125,0.1875,0.125,1.875,78.875,-11.6875,0.0,-1.875,-19.0625,0.986084,0.165527,0.016724,0.0,0.0,0.0,0.01,-0.32,3.2,9.26,22
3.15663,-0.33,3.19,9.25,0.0625,0.125,0.0625,1.875,78.875,-11.6875,0.0,-1.875,-19.0625,0.986084,0.165527,0.016724,0.0,0.0,0.0,0.0,-0.32,3.2,9.26,22
3.167591,-0.32,3.19,9.25,0.0625,0.125,0.0,1.875,78.875,-11.6875,0.0,-1.875,-19.0625,0.986084,0.165527,0.016724,0.0,-0.01,0.0,0.0,-0.32,3.2,9.26,22
3.178551,-0.33,3.19,9.26,0.0625,-0.125,0.125,1.875,78.875,-11.6875,0.0,-1.875,-19.0625,0.986084,0.165527,0.016724,0.0,0.0,-0.04,0.02,-0.32,3.2,9.26,22
3.189512,-0.33,3.16,9.28,0.125,-0.25,0.0,1.875,78.875,-11.6875,0.0,-1.875,-19.0625,0.986084,0.165527,0.016724,0.0,0.0,-0.04,0.02,-0.32,3.2,9.26,22
3.200472,-0.31,3.17,9.27,-0.125,-0.0625,0.0,3.0,78.875,-11.25,0.0,-1.875,-19.0625,0.986084,0.165527,0.016724,0.0,0.0,-0.02,0.0,-0.32,3.2,9.26,22
3.211433,-0.33,3.19,9.27,-0.0625,0.1875,-0.0625,3.0,78.875,-11.25,0.0,-1.875,-19.0625,0.986084,0.165527,0.016724,0.0,0.0,0.0,0.01,-0.32,3.2,9.26,22
3.222393,-0.32,3.19,9.26,0.125,0.125,0.0625,3.0,78.875,-11.25,0.0,-1.875,-19.0625,0.986084,0.165527,0.016724,0.0,0.0,0.0,0.0,-0.32,3.2,9.26,22
3.233354,-0.32,3.17,9.26,0.0,0.125,-0.125,3.0,78.875,-11.25,0.0,-1.875,-19.0625,0.986084,0.165527,0.016724,0.0,0.0,-0.02,0.0,-0.32,3.2,9.26,22
3.244314,-0.32,3.21,9.27,0.3125,0.1875,0.0625,5.25,77.75,-15.5625,0.0,-1.875,-19.0625,0.986084,0.165527,0.016724,0.0,0.0,-0.01,0.02,-0.32,3.2,9.26,22
3.255275,-0.32,3.18,9.28,0.1875,0.0625,0.0625,5.25,77.75,-15.5625,0.0,-1.875,-19.0625,0.986084,0.165527,0.016724,0.0,0.0,-0.01,-0.01,-0.32,3.2,9.26,22
3.266235,-0.32,3.18,9.25,0.1875,0.0,0.0,5.25,77.75,-15.5625,0.0,-1.875,-19.0625,0.986084,0.165527,0.016724,0.0,-0.01,-0.01,0.0,-0.32,3.2,9.26,22
3.277196,-0.33,3.2,9.25,-0.0625,0.125,-0.125,5.25,77.75,-15.5625,0.0,-1.875,-19.0625,0.986084,0.165527,0.016724,0.0,-0.01,0.0,0.0,-0.32,3.2,9.26,22
3.288156,-0.32,3.2,9.28,0.0,-0.0625,0.125,2.5625,77.0,-10.5,0.0,-1.875,-19.0625,0.986084,0.165527,0.016724,0.0,0.0,0.0,0.01,-0.32,3.2,9.26,22
3.299117,-0.32,3.2,9.27,0.25,0.25,0.125,2.5625,77.0,-10.5,0.0,-1.875,-19.0625,0.986084,0.165527,0.016724,0.0,0.0,-0.01,0.0,-0.32,3.2,9.26,22
3.310077,-0.33,3.18,9.26,0.25,0.375,0.0625,2.5625,77.0,-10.5,0.0,-1.875,-19.0625,0.986084,0.165527,0.016724,0.0,-0.01,0.0,0.0,-0.32,3.2,9.26,22
3.321038,-0.33,3.2,9.25,0.0,0.3125,0.0625,2.5625,77.0,-10.5,0.0,-1.875,-19.0625,0.986084,0.165527,0.016724,0.0,0.0,0.0,-0.03,-0.32,3.2,9.26,22
3.331999,-0.31,3.2,9.22,0.0625,0.1875,-0.0625,2.5625,77.0,-10.5,0.0,-1.875,-19.0625,0.986084,0.165527,0.016724,0.0,0.0,0.0,-0.03,-0.32,3.2,9.26,22
3.342959,-0.32,3.19,9.27,0.1875,0.0,0.0625,1.0625,78.875,-11.25,0.0,-1.875,-19.0625,0.986084,0.165527,0.016724,0.0,0.0,0.0,0.02,-0.32,3.2,9.26,22
3.35392,-0.32,3.19,9.28,0.0625,0.125,0.1875,1.0625,78.875,-11.25,0.0,-1.875,-19.0625,0.986084,0.165527,0.016724,0.0,-0.01,0.01,-0.01,-0.32,3.2,9.26,22
3.36488,-0.33,3.21,9.24,0.125,0.25,0.0625,1.0625,78.875,-11.25,0.0,-1.875,-19.0625,0.986084,0.165527,0.016724,0.0,0.0,0.0,0.01,-0.32,3.2,9.26,22
3.375841,-0.31,3.19,9.27,0.0625,0.3125,0.125,1.0625,78.875,-11.25,0.0,-1.875,-19.0625,0.986084,0.165527,0.016724,0.0,0.0,-0.01,0.02,-0.32,3.2,9.26,22
3.386801,-0.33,3.2,9.27,-0.0625,0.1875,0.0,2.25,78.5,-10.875,0.0,-1.875,-19.0625,0.986084,0.165527,0.016724,0.0,0.0,0.0,0.01,-0.32,3.2,9.26,22
3.397762,-0.32,3.18,9.27,0.0,-0.0625,-0.0625,2.25,78.5,-10.875,0.0,-1.875,-19.0625,0.986084,0.165527,0.016724,0.0,0.0,0.0,0.0,-0.32,3.2,9.26,22
3.408722,-0.31,3.19,9.25,0.0,0.125,-0.0625,2.25,78.5,-10.875,0.0,-1.875,-19.0625,0.986084,0.165527,0.016724,0.0,0.0,0.0,0.01,-0.32,3.2,9.26,22
3.419683,-0.31,3.19,9.27,0.0,-0.125,0.125,2.25,78.5,-10.875,0.0,-1.875,-19.0625,0.986084,0.165527,0.016724,0.0,0.0,0.0,0.0,-0.32,3.2,9.26,22
3.430643,-0.31,3.19,9.26,-0.125,0.0625,0.0,2.25,78.5,-10.875,0.0,-1.875,-19.0625,0.986084,0.165527,0.016724,0.0,0.0,0.0,0.0,-0.32,3.2,9.26,22
3.441604,-0.32,3.19,9.25,0.0,0.25,-0.0625,1.875,79.25,-11.6875,0.0,-1.875,-19.0625,0.986084,0.165527,0.016724,0.0,0.0,0.0,0.01,-0.32,3.2,9.26,22
3.452564,-0.32,3.19,9.27,-0.0625,0.1875,0.0,1.875,79.25,-11.6875,0.0,-1.875,-19.0625,0.986084,0.165527,0.016724,0.0,0.0,0.0,0.01,-0.32,3.2,9.26,22
3.463525,-0.32,3.19,9.27,0.125,-0.0625,0.1875,1.875,79.25,-11.6875,0.0,-1.875,-19.0625,0.986084,0.165527,0.016724,0.0,0.0,0.0,0.01,-0.32,3.2,9.26,22
3.474485,-0.33,3.19,9.27,0.1875,0.0625,0.0,1.875,79.25,-11.6875,0.0,-1.875,-19.0625,0.986084,0.165527,0.016724,0.0,0.0,-0.02,-0.02,-0.32,3.2,9.26,22
3.485446,-0.32,3.17,9.24,0.125,0.0625,0.125,1.875,78.5,-11.25,0.0,-1.875,-19.0625,0.986084,0.165527,0.016724,0.0,0.0,0.01,0.03,-0.32,3.2,9.26,22
3.496406,-0.32,3.21,9.29,0.1875,0.375,0.125,1.875,78.5,-11.25,0.0,-1.875,-19.0625,0.986084,0.165527,0.016724,0.0,0.0,0.0,0.04,-0.32,3.2,9.26,22
3.507367,-0.32,3.19,9.3,-0.125,0.125,0.125,1.875,78.5,-11.25,0.0,-1.875,-19.0625,0.986084,0.165527,0.016724,0.0,0.0,0.0,0.0,-0.32,3.2,9.26,22
3.518327,-0.32,3.19,9.25,0.125,0.375,0.1875,1.875,78.5,-11.25,0.0,-1.875,-19.0625,0.986084,0.165527,0.016724,0.0,0.0,0.0,0.0,-0.32,3.2,9.26,22
3.529288,-0.32,3.19,9.25,-0.125,0.0,0.0625,1.875,78.5,-11.25,0.0,-1.875,-19.0625,0.986084,0.165527,0.016724,0.0,0.01,-0.02,-0.01,-0.32,3.2,9.26,22
3.540248,-0.31,3.17,9.24,0.0625,-0.0625,0.1875,4.875,78.0625,-16.0,0.0,-1.875,-19.0625,0.986084,0.165527,0.016724,0.0,0.0,0.0,0.02,-0.32,3.2,9.26,22
3.551209,-0.32,3.19,9.28,0.1875,0.125,-0.0625,4.875,78.0625,-16.0,0.0,-1.875,-19.0625,0.986084,0.165527,0.016724,0.0,0.0,0.0,0.02,-0.32,3.2,9.26,22
3.562169,-0.32,3.2,9.28,0.125,0.1875,0.0625,4.875,78.0625,-16.0,0.0,-1.875,-19.0625,0.986084,0.165527,0.016724,0.0,0.0,0.0,-0.01,-0.32,3.2,9.26,22
3.57313,-0.31,3.19,9.25,0.0,0.1875,0.0,4.875,78.0625,-16.0,0.0,-1.875,-19.0625,0.986084,0.165527,0.016724,0.0,0.0,-0.01,0.0,-0.32,3.2,9.26,22
3.584091,-0.31,3.18,9.26,-0.125,-0.0625,-0.0625,4.875,78.0625,-16.0,0.0,-1.875,-19.0625,0.986084,0.165527,0.016724,0.0,0.0,0.0,0.02,-0.32,3.2,9.26,22
3.595051,-0.32,3.2,9.28,0.125,0.0,0.1875,4.0625,77.75,-15.1875,0.0,-1.875,-19.0625,0.986084,0.165527,0.016724,0.0,0.0,-0.01,-0.01,-0.32,3.2,9.26,22
3.606012,-0.31,3.18,9.24,0.0625,-0.25,-0.0625,4.0625,77.75,-15.1875,0.0,-1.875,-19.0625,0.986084,0.165527,0.016724,0.0,0.0,0.0,0.0,-0.32,3.2,9.26,22
3.616972,-0.32,3.2,9.26,-0.1875,0.25,0.0625,4.0625,77.75,-15.1875,0.0,-1.875,-19.0625,0.986084,0.165527,0.016724,0.0,0.0,-0.01,-0.01,-0.32,3.2,9.26,22
3.627933,-0.33,3.18,9.25,0.0625,-0.125,0.0625,4.0625,77.75,-15.1875,0.0,-1.875,-19.0625,0.986084,0.165527,0.016724,0.0,0.0,0.0,0.0,-0.32,3.2,9.26,22
3.638893,-0.32,3.2,9.25,-0.25,0.125,0.125,4.0625,77.75,-15.1875,0.0,-1.875,-19.0625,0.986084,0.165527,0.016724,0.0,0.0,-0.01,0.02,-0.32,3.2,9.26,22
3.649854,-0.32,3.18,9.29,-0.125,0.1875,0.0,6.0,77.75,-16.0,0.0,-1.875,-19.0625,0.986084,0.165527,0.016724,0.0,0.0,0.0,0.0,-0.32,3.2,9.26,22
3.660814,-0.32,3.2,9.27,0.25,0.25,0.0625,6.0,77.75,-16.0,0.0,-1.875,-19.0625,0.986084,0.165527,0.016724,0.0,0.0,0.0,0.01,-0.32,3.2,9.26,22
3.671775,-0.32,3.18,9.24,0.3125,0.3125,0.0,6.0,77.75,-16.0,0.0,-1.875,-19.0625,0.986084,0.165527,0.016724,0.0,0.0,-0.01,0.0,-0.32,3.2,9.26,22
3.682735,-0.33,3.18,9.26,0.0625,-0.0625,-0.0625,6.0,77.75,-16.0,0.0,-1.875,-19.0625,0.986084,0.165527,0.016724,0.0,0.0,0.0,0.0,-0.32,3.2,9.26,22
3.693696,-0.33,3.2,9.26,0.0625,0.0,-0.0625,6.0,77.75,-16.0,0.0,-1.875,-19.0625,0.986084,0.165527,0.016724,0.0,0.0,0.0,0.0,-0.32,3.2,9.26,22
3.704656,-0.31,3.2,9.25,0.0625,-0.3125,0.1875,4.875,77.75,-16.0,0.0,-1.875,-19.0625,0.986084,0.165527,0.016724,0.0,0.0,0.0,0.01,-0.32,3.2,9.26,22
3.715617,-0.32,3.2,9.27,0.0625,-0.125,0.0,4.875,77.75,-16.0,0.0,-1.875,-19.0625,0.986084,0.165527,0.016724,0.0,0.0,0.0,0.01,-0.32,3.2,9.26,22
3.726577,-0.32,3.19,9.27,0.0625,-0.0625,0.0625,4.875,77.75,-16.0,0.0,-1.875,-19.0625,0.986084,0.165527,0.016724,0.0,0.0,0.01,-0.03,-0.32,3.2,9.26,22
3.737538,-0.32,3.21,9.23,0.0625,0.0625,0.0,4.875,77.75,-16.0,0.0,-1.875,-19.0625,0.986084,0.165527,0.016724,0.0,-0.01,-0.01,0.0,-0.32,3.2,9.26,22
3.748498,-0.33,3.18,9.26,0.0625,0.0625,0.0625,6.0,76.5625,-12.5,0.0,-1.875,-19.0625,0.986084,0.165527,0.016724,0.0,0.0,-0.01,0.0,-0.32,3.2,9.26,22
3.759459,-0.33,3.18,9.31,0.0,-0.0625,0.0625,6.0,76.5625,-12.5,0.0,-1.875,-19.0625,0.986084,0.165527,0.016724,0.0,-0.01,-0.01,0.05,-0.32,3.2,9.26,22
3.770419,-0.32,3.19,9.23,-0.0625,0.0,-0.0625,6.0,76.5625,-12.5,0.0,-1.875,-19.0625,0.986084,0.165527,0.016724,0.0,0.0,0.0,-0.01,-0.32,3.2,9.26,22
3.78138,-0.32,3.2,9.24,0.0625,0.25,-0.0625,6.0,76.5625,-12.5,0.0,-1.875,-19.0625,0.986084,0.165527,0.016724,0.0,0.0,-0.01,0.01,-0.32,3.2,9.26,22
3.79234,-0.32,3.18,9.27,-0.0625,0.0625,0.0625,3.75,77.375,-10.5,0.0,-1.875,-19.0625,0.986084,0.165527,0.016724,0.0,0.0,0.01,0.0,-0.32,3.2,9.26,22
3.803301,-0.31,3.21,9.25,0.0,-0.25,-0.0625,3.75,77.375,-10.5,0.0,-1.875,-19.0625,0.986084,0.165527,0.016724,0.0,0.0,0.0,0.01,-0.32,3.2,9.26,22
3.814261,-0.33,3.19,9.27,-0.125,0.25,0.0,3.75,77.375,-10.5,0.0,-1.875,-19.0625,0.986084,0.165527,0.016724,0.0,0.0,-0.01,-0.01,-0.32,3.2,9.26,22
3.825222,-0.32,3.18,9.25,0.1875,0.125,0.0,3.75,77.375,-10.5,0.0,-1.875,-19.0625,0.986084,0.165527,0.016724,0.0,-0.01,-0.01,0.0,-0.32,3.2,9.26,22
3.836183,-0.33,3.18,9.25,0.1875,-0.0625,0.125,3.75,77.375,-10.5,0.0,-1.875,-19.0625,0.986084,0.165527,0.016724,0.0,-0.02,-0.01,0.0,-0.32,3.2,9.26,22
3.847143,-0.34,3.18,9.26,0.125,0.1875,0.125,1.875,78.0625,-11.25,0.0,-1.875,-19.0625,0.986084,0.165527,0.016724,0.0,0.0,0.0,0.01,-0.32,3.2,9.26,22
3.858104,-0.31,3.17,9.27,0.0625,-0.125,0.0625,1.875,78.0625,-11.25,0.0,-1.875,-19.0625,0.986084,0.165527,0.016724,0.0,0.0,-0.02,0.01,-0.32,3.2,9.26,22
3.869064,-0.31,3.17,9.25,0.0625,0.0,0.0625,1.875,78.0625,-11.25,0.0,-1.875,-19.0625,0.986084,0.165527,0.016724,0.0,0.0,0.0,-0.01,-0.32,3.2,9.26,22
3.880025,-0.32,3.19,9.24,0.125,0.0625,0.0625,1.875,78.0625,-11.25,0.0,-1.875,-19.0625,0.986084,0.165527,0.016724,0.0,0.0,0.0,0.0,-0.32,3.2,9.26,22
3.890985,-0.31,3.19,9.26,0.125,0.125,0.0,1.875,78.0625,-11.25,0.0,-1.875,-19.0625,0.986084,0.165527,0.016724,0.0,0.0,0.0,0.0,-0.32,3.2,9.26,22
3.901946,-0.31,3.19,9.26,0.3125,-0.1875,0.1875,2.25,78.5,-12.0625,0.0,-1.875,-19.0625,0.986084,0.165527,0.016724,0.0,0.0,-0.01,0.0,-0.32,3.2,9.26,22
3.912906,-0.32,3.18,9.26,0.0625,-0.25,0.0625,2.25,78.5,-12.0625,0.0,-1.875,-19.0625,0.986084,0.165527,0.016724,0.0,0.0,-0.01,0.0,-0.32,3.2,9.26,22
3.923867,-0.31,3.18,9.25,0.25,-0.125,0.1875,2.25,78.5,-12.0625,0.0,-1.875,-19.0625,0.986084,0.165527,0.016724,0.0,0.0,-0.01,0.01,-0.32,3.2,9.26,22
3.934827,-0.32,3.18,9.27,0.1875,0.0625,-0.0625,2.25,78.5,-12.0625,0.0,-1.875,-19.0625,0.986084,0.165527,0.016724,0.0,0.0,0.0,0.0,-0.32,3.2,9.26,22
3.945788,-0.31,3.19,9.26,0.0,-0.1875,0.0,2.5625,78.875,-10.875,0.0,-1.875,-19.0625,0.986084,0.165527,0.016724,0.0,0.0,-0.01,0.01,-0.32,3.2,9.26,22
3.956748,-0.33,3.18,9.27,-0.125,0.1875,0.0,2.5625,78.875,-10.875,0.0,-1.875,-19.0625,0.986084,0.165527,0.016724,0.0,0.0,-0.02,0.01,-0.32,3.2,9.26,22
3.967709,-0.32,3.17,9.27,0.0,0.125,0.0,2.5625,78.875,-10.875,0.0,-1.875,-19.0625,0.986084,0.165527,0.016724,0.0,0.0,-0.01,-0.01,-0.32,3.2,9.26,22
3.978669,-0.32,3.18,9.25,-0.125,-0.1875,0.0625,2.5625,78.875,-10.875,0.0,-1.875,-19.0625,0.986084,0.165527,0.016724,0.0,0.0,0.0,0.0,-0.32,3.2,9.26,22
3.98963,-0.32,3.2,9.26,0.0,-0.125,0.0,2.5625,78.875,-10.875,0.0,-1.875,-19.0625,0.986084,0.165527,0.016724,0.0,0.02,-0.01,0.0,-0.32,3.2,9.26,22
4.00059,-0.3,3.18,9.26,0.125,0.0625,0.0,1.0625,78.5,-10.0625,0.0,-1.875,-19.0625,0.986084,0.165527,0.016724,0.0,0.0,0.0,0.01,-0.32,3.2,9.26,22
4.011551,-0.33,3.18,9.29,0.1875,0.0625,0.0625,1.0625,78.5,-10.0625,0.0,-1.875,-19.0625,0.986084,0.165527,0.016724,0.0,-0.01,-0.01,0.02,-0.32,3.2,9.26,22
4.022511,-0.31,3.2,9.26,0.25,0.375,0.125,1.0625,78.5,-10.0625,0.0,-1.875,-19.0625,0.986084,0.165527,0.016724,0.0,0.0,0.02,0.0,-0.32,3.2,9.26,22
4.033472,-0.31,3.22,9.25,-0.0625,0.125,0.0625,1.0625,78.5,-10.0625,0.0,-1.875,-19.0625,0.986084,0.165527,0.016724,0.0,0.0,-0.01,0.0,-0.32,3.2,9.26,22
4.044432,-0.32,3.18,9.26,0.0,0.375,0.0,1.0625,78.5,-10.0625,0.0,-1.875,-19.0625,0.986084,0.165527,0.016724,0.0,0.0,-0.01,0.0,-0.32,3.2,9.26,22
4.055393,-0.32,3.19,9.25,-0.25,-0.125,0.0,2.25,78.875,-11.6875,0.0,-1.875,-19.0625,0.986084,0.165527,0.016724,0.0,0.0,0.0,0.02,-0.32,3.2,9.26,22
4.066353,-0.32,3.19,9.28,-0.0625,-0.0625,0.0625,2.25,78.875,-11.6875,0.0,-1.875,-19.0625,0.986084,0.165527,0.016724,0.0,0.0,0.0,0.01,-0.32,3.2,9.26,22
4.077314,-0.32,3.2,9.27,0.0625,0.125,0.0625,2.25,78.875,-11.6875,0.0,-1.875,-19.0625,0.986084,0.165527,0.016724,0.0,0.0,0.0,0.0,-0.32,3.2,9.26,22
4.088275,-0.32,3.2,9.25,0.125,0.1875,0.0,2.25,78.875,-11.6875,0.0,-1.875,-19.0625,0.986084,0.165527,0.016724,0.0,0.0,0.0,0.04,-0.32,3.2,9.26,22
4.099235,-0.32,3.19,9.31,0.0625,0.0625,0.0625,2.25,77.75,-11.6875,0.0,-1.875,-19.0625,0.986084,0.165527,0.016724,0.0,0.0,0.0,0.0,-0.32,3.2,9.26,22
4.110196,-0.32,3.2,9.26,0.0625,0.25,0.0,2.25,77.75,-11.6875,0.0,-1.875,-19.0625,0.986084,0.165527,0.016724,0.0,0.0,-0.01,0.02,-0.32,3.2,9.26,22
4.121156,-0.31,3.18,9.29,0.1875,0.3125,0.0,2.25,77.75,-11.6875,0.0,-1.875,-19.0625,0.986084,0.165527,0.016724,0.0,0.0,-0.04,-0.01,-0.32,3.2,9.26,22
4.132117,-0.32,3.16,9.25,0.125,0.0625,0.0,2.25,77.75,-11.6875,0.0,-1.875,-19.0625,0.986084,0.165527,0.016724,0.0,0.0,-0.01,0.0,-0.32,3.2,9.26,22
4.143077,-0.31,3.18,9.26,0.0,0.1875,0.0,2.25,77.75,-11.6875,0.0,-1.875,-19.0625,0.986084,0.165527,0.016724,0.0,0.0,0.0,0.02,-0.32,3.2,9.26,22
4.154038,-0.32,3.2,9.29,-0.0625,0.375,0.0625,0.375,79.5625,-11.25,0.0,-1.875,-19.0625,0.986084,0.165527,0.016724,0.0,0.0,0.0,0.0,-0.32,3.2,9.26,22
4.164998,-0.32,3.19,9.25,0.0,0.125,0.125,0.375,79.5625,-11.25,0.0,-1.875,-19.0625,0.986084,0.165527,0.016724,0.0,0.0,0.0,0.0,-0.32,3.2,9.26,22
4.175959,-0.33,3.19,9.26,0.125,0.4375,-0.0625,0.375,79.5625,-11.25,0.0,-1.875,-19.0625,0.986084,0.165527,0.016724,0.0,0.01,0.0,0.0,-0.32,3.2,9.26,22
4.186919,-0.31,3.19,9.26,0.125,-0.0625,0.0625,0.375,79.5625,-11.25,0.0,-1.875,-19.0625,0.986084,0.165527,0.016724,0.0,0.0,-0.01,0.01,-0.32,3.2,9.26,22
4.19788,-0.32,3.18,9.27,0.0625,0.0,0.0,0.375,79.5625,-11.25,0.0,-1.875,-19.0625,0.986084,0.165527,0.016724,0.0,0.0,0.0,-0.01,-0.32,3.2,9.26,22
4.20884,-0.32,3.2,9.27,-0.1875,0.0625,0.0,2.25,79.25,-10.875,0.0,-1.875,-19.0625,0.986084,0.165527,0.016724,0.0,0.0,0.0,0.01,-0.32,3.2,9.26,22
4.219801,-0.32,3.2,9.29,0.0,0.0,-0.0625,2.25,79.25,-10.875,0.0,-1.875,-19.0625,0.986084,0.165527,0.016724,0.0,0.0,0.01,-0.02,-0.32,3.2,9.26,22
4.230761,-0.32,3.21,9.23,0.0625,-0.125,0.125,2.25,79.25,-10.875,0.0,-1.875,-19.0625,0.986084,0.165527,0.016724,0.0,0.0,0.01,0.0,-0.32,3.2,9.26,22
4.241722,-0.32,3.21,9.26,-0.0625,0.0625,0.125,2.25,79.25,-10.875,0.0,-1.875,-19.0625,0.986084,0.165527,0.016724,0.0,0.0,0.0,0.02,-0.32,3.2,9.26,22
4.252682,-0.32,3.2,9.28,0.0,0.125,0.0,2.25,79.25,-10.875,0.0,-1.875,-19.0625,0.986084,0.165527,0.016724,0.0,0.0,0.0,0.02,-0.32,3.2,9.26,22
4.263643,-0.32,3.19,9.27,0.0625,0.125,0.0625,1.875,78.5,-10.5,0.0,-1.875,-19.0625,0.986084,0.165527,0.016724,0.0,0.0,0.0,0.0,-0.32,3.2,9.26,22
4.274603,-0.33,3.2,9.26,0.125,0.0,0.125,1.875,78.5,-10.5,0.0,-1.875,-19.0625,0.986084,0.165527,0.016724,0.0,-0.01,0.0,0.0,-0.32,3.2,9.26,22
4.285564,-0.33,3.2,9.25,0.0,0.0,0.1875,1.875,78.5,-10.5,0.0,-1.875,-19.0625,0.986084,0.165527,0.016724,0.0,0.0,0.0,-0.01,-0.32,3.2,9.26,22
4.296524,-0.32,3.19,9.25,-0.125,0.0625,-0.0625,1.875,78.5,-10.5,0.0,-1.875,-19.0625,0.986084,0.165527,0.016724,0.0,-0.01,-0.01,0.01,-0.32,3.2,9.26,22
4.307485,-0.33,3.18,9.27,0.125,0.125,0.125,1.875,77.75,-10.5,0.0,-1.875,-19.0625,0.986084,0.165527,0.016724,0.0,0.0,0.0,0.0,-0.32,3.2,9.26,22
4.318445,-0.31,3.2,9.27,0.1875,0.1875,0.0,1.875,77.75,-10.5,0.0,-1.875,-19.0625,0.986084,0.165527,0.016724,0.0,0.0,0.0,0.01,-0.32,3.2,9.26,22
4.329406,-0.32,3.18,9.26,0.125,-0.1875,0.125,1.875,77.75,-10.5,0.0,-1.875,-19.0625,0.986084,0.165527,0.016724,0.0,0.0,0.0,0.01,-0.32,3.2,9.26,22
4.340367,-0.33,3.19,9.27,-0.0625,-0.125,-0.125,1.875,77.75,-10.5,0.0,-1.875,-19.0625,0.986084,0.165527,0.016724,0.0,0.0,0.0,0.02,-0.32,3.2,9.26,22
4.351327,-0.32,3.2,9.28,0.1875,0.0,0.125,1.875,77.75,-10.5,0.0,-1.875,-19.0625,0.986084,0.165527,0.016724,0.0,0.0,0.0,0.02,-0.32,3.2,9.26,22
4.362288,-0.33,3.19,9.28,0.25,-0.125,-0.0625,3.375,77.75,-10.5,0.0,-1.875,-19.0625,0.986084,0.165527,0.016724,0.0,-0.01,0.01,0.0,-0.32,3.2,9.26,22
4.373248,-0.33,3.21,9.25,0.0,0.0,0.125,3.375,77.75,-10.5,0.0,-1.875,-19.0625,0.986084,0.165527,0.016724,0.0,0.0,-0.01,-0.01,-0.32,3.2,9.26,22
4.384209,-0.31,3.18,9.25,-0.0625,-0.1875,0.0,3.375,77.75,-10.5,0.0,-1.875,-19.0625,0.986084,0.165527,0.016724,0.0,0.0,-0.01,0.01,-0.32,3.2,9.26,22
4.395169,-0.31,3.18,9.27,0.0625,0.1875,-0.0625,3.375,77.75,-10.5,0.0,-1.875,-19.0625,0.986084,0.165527,0.016724,0.0,0.0,0.0,0.01,-0.32,3.2,9.26,22
4.40613,-0.32,3.19,9.27,0.0,-0.0625,-0.0625,1.875,79.25,-12.5,0.0,-1.875,-19.0625,0.986084,0.165527,0.016724,0.0,0.0,-0.02,0.0,-0.32,3.2,9.26,22
4.41709,-0.32,3.17,9.26,0.0,0.0625,0.0,1.875,79.25,-12.5,0.0,-1.875,-19.0625,0.986084,0.165527,0.016724,0.0,0.0,-0.01,0.0,-0.32,3.2,9.26,22
4.428051,-0.32,3.18,9.26,-0.25,-0.125,-0.125,1.875,79.25,-12.5,0.0,-1.875,-19.0625,0.986084,0.165527,0.016724,0.0,0.0,0.0,0.0,-0.32,3.2,9.26,22
4.439011,-0.32,3.19,9.25,-0.125,0.0625,-0.0625,1.875,79.25,-12.5,0.0,-1.875,-19.0625,0.986084,0.165527,0.016724,0.0,0.0,0.01,0.01,-0.32,3.2,9.26,22
4.449972,-0.32,3.21,9.27,-0.0625,0.3125,0.0,1.875,79.25,-12.5,0.0,-1.875,-19.0625,0.986084,0.165527,0.016724,0.0,0.0,-0.01,0.02,-0.32,3.2,9.26,22
4.460932,-0.33,3.18,9.28,-0.125,-0.0625,-0.0625,0.75,79.25,-10.0625,0.0,-1.875,-19.0625,0.986084,0.165527,0.016724,0.0,0.0,-0.02,0.02,-0.32,3.2,9.26,22
4.471893,-0.33,3.17,9.28,-0.25,0.0625,-0.125,0.75,79.25,-10.0625,0.0,-1.875,-19.0625,0.986084,0.165527,0.016724,0.0,0.0,-0.03,0.02,-0.32,3.2,9.26,22
4.482853,-0.31,3.16,9.28,0.0625,0.25,0.0,0.75,79.25,-10.0625,0.0,-1.875,-19.0625,0.986084,0.165527,0.016724,0.0,0.0,-0.01,-0.01,-0.32,3.2,9.26,22
4.493814,-0.31,3.18,9.25,-0.0625,0.0,-0.0625,0.75,79.25,-10.0625,0.0,-1.875,-19.0625,0.986084,0.165527,0.016724,0.0,0.0,0.0,0.01,-0.32,3.2,9.26,22
4.504774,-0.32,3.19,9.27,0.125,0.125,-0.0625,0.75,79.25,-10.0625,0.0,-1.875,-19.0625,0.986084,0.165527,0.016724,0.0,0.0,-0.01,0.01,-0.32,3.2,9.26,22
4.515735,-0.32,3.18,9.27,0.125,0.0,0.0625,3.375,78.875,-9.75,0.0,-1.875,-19.0625,0.986084,0.165527,0.016724,0.0,0.0,-0.01,0.0,-0.32,3.2,9.26,22
4.526695,-0.32,3.18,9.25,0.125,-0.125,-0.0625,3.375,78.875,-9.75,0.0,-1.875,-19.0625,0.986084,0.165527,0.016724,0.0,0.0,-0.01,0.0,-0.32,3.2,9.26,22
4.537656,-0.31,3.18,9.26,0.0,0.0,-0.0625,3.375,78.875,-9.75,0.0,-1.875,-19.0625,0.986084,0.165527,0.016724,0.0,0.0,-0.01,0.0,-0.32,3.2,9.26,22
4.548616,-0.32,3.18,9.25,-0.0625,-0.1875,0.0,3.375,78.875,-9.75,0.0,-1.875,-19.0625,0.986084,0.165527,0.016724,0.0,0.0,-0.02,0.0,-0.32,3.2,9.26,22
4.559577,-0.32,3.17,9.26,-0.0625,0.0,0.0,3.375,78.875,-9.75,0.0,-1.875,-19.0625,0.986084,0.165527,0.016724,0.0,0.0,-0.02,0.0,-0.32,3.2,9.26,22
4.570537,-0.32,3.17,9.26,-0.3125,-0.1875,0.125,2.5625,78.0625,-10.5,0.0,-1.875,-19.0625,0.986084,0.165527,0.016724,0.0,0.0,-0.01,0.02,-0.32,3.2,9.26,22
4.581498,-0.32,3.18,9.27,-0.0625,0.125,0.0625,2.5625,78.0625,-10.5,0.0,-1.875,-19.0625,0.986084,0.165527,0.016724,0.0,0.0,-0.01,0.01,-0.32,3.2,9.26,22
4.592459,-0.32,3.17,9.26,-0.3125,-0.1875,0.0625,2.5625,78.0625,-10.5,0.0,-1.875,-19.0625,0.986084,0.165527,0.016724,0.0,0.0,-0.01,0.0,-0.32,3.2,9.26,22
4.603419,-0.32,3.18,9.26,0.0625,-0.1875,-0.0625,2.5625,78.0625,-10.5,0.0,-1.875,-19.0625,0.986084,0.165527,0.016724,0.0,0.0,-0.02,0.01,-0.32,3.2,9.26,22
4.61438,-0.33,3.17,9.27,0.1875,0.0625,-0.125,2.5625,78.0625,-10.5,0.0,-1.875,-19.0625,0.986084,0.165527,0.016724,0.0,0.0,-0.02,0.01,-0.32,3.2,9.26,22
4.62534,-0.31,3.18,9.26,0.0,-0.125,0.0625,1.875,78.5,-11.25,0.0,-1.875,-19.0625,0.986084,0.165527,0.016724,0.0,0.01,-0.01,0.0,-0.32,3.2,9.26,22
4.636301,-0.31,3.18,9.26,-0.4375,-0.125,-0.0625,1.875,78.5,-11.25,0.0,-1.875,-19.0625,0.986084,0.165527,0.016724,0.0,0.0,-0.01,-0.02,-0.32,3.2,9.26,22
4.647261,-0.32,3.18,9.24,0.0,-0.0625,-0.125,1.875,78.5,-11.25,0.0,-1.875,-19.0625,0.986084,0.165527,0.016724,0.0,0.0,0.01,0.01,-0.32,3.2,9.26,22
4.658222,-0.32,3.21,9.27,-0.125,0.0,-0.0625,1.875,78.5,-11.25,0.0,-1.875,-19.0625,0.986084,0.165527,0.016724,0.0,-0.01,0.0,0.0,-0.32,3.2,9.26,22
4.669182,-0.33,3.19,9.25,-0.3125,-0.0625,0.0,1.875,78.5,-11.25,0.0,-1.875,-19.0625,0.986084,0.165527,0.016724,0.0,-0.01,0.0,0.0,-0.32,3.2,9.26,22
4.680143,-0.32,3.18,9.27,0.0625,-0.1875,0.0,7.5,77.0,-14.375,0.0,-1.875,-19.0625,0.986084,0.165527,0.016724,0.0,0.0,0.0,-0.01,-0.32,3.2,9.26,22
4.691103,-0.32,3.2,9.24,-0.125,0.1875,-0.0625,7.5,77.0,-14.375,0.0,-1.875,-19.0625,0.986084,0.165527,0.016724,0.0,0.0,0.0,0.0,-0.32,3.2,9.26,22
4.702064,-0.31,3.2,9.25,0.0625,0.3125,-0.125,7.5,77.0,-14.375,0.0,-1.875,-19.0625,0.986084,0.165527,0.016724,0.0,0.0,0.0,0.0,-0.32,3.2,9.26,22
4.713024,-0.32,3.2,9.26,-0.3125,-0.0625,0.0625,7.5,77.0,-14.375,0.0,-1.875,-19.0625,0.986084,0.165527,0.016724,0.0,0.0,-0.01,0.0,-0.32,3.2,9.26,22
4.723985,-0.32,3.18,9.26,-0.125,0.0625,0.0625,6.375,77.0,-15.25,0.0,-1.875,-19.0625,0.986084,0.165527,0.016724,0.0,0.0,-0.01,0.02,-0.32,3.2,9.26,22
4.734945,-0.32,3.2,9.27,-0.125,-0.0625,0.0,6.375,77.0,-15.25,0.0,-1.875,-19.0625,0.986084,0.165527,0.016724,0.0,0.0,0.0,0.01,-0.32,3.2,9.26,22
4.745906,-0.33,3.18,9.25,0.0,-0.125,-0.0625,6.375,77.0,-15.25,0.0,-1.875,-19.0625,0.986084,0.165527,0.016724,0.0,0.0,-0.01,0.0,-0.32,3.2,9.26,22
4.756866,-0.32,3.18,9.25,0.1875,-0.0625,0.0,6.375,77.0,-15.25,0.0,-1.875,-19.0625,0.986084,0.165527,0.016724,0.0,0.0,0.0,0.01,-0.32,3.2,9.26,22
4.767827,-0.32,3.19,9.27,0.1875,0.0625,0.0,6.375,77.0,-15.25,0.0,-1.875,-19.0625,0.986084,0.165527,0.016724,0.0,0.0,0.0,0.01,-0.32,3.2,9.26,22
4.778787,-0.33,3.18,9.27,0.125,0.125,-0.0625,4.5,77.375,-16.75,0.0,-1.875,-19.0625,0.986084,0.165527,0.016724,0.0,0.0,0.02,0.01,-0.32,3.2,9.26,22
4.789748,-0.32,3.22,9.27,-0.0625,0.125,-0.125,4.5,77.375,-16.75,0.0,-1.875,-19.0625,0.986084,0.165527,0.016724,0.0,0.0,0.01,0.01,-0.32,3.2,9.26,22
4.800708,-0.32,3.21,9.27,-0.25,0.125,0.0,4.5,77.375,-16.75,0.0,-1.875,-19.0625,0.986084,0.165527,0.016724,0.0,0.0,0.0,0.01,-0.32,3.2,9.26,22
4.811669,-0.32,3.2,9.27,-0.1875,0.125,-0.25,4.5,77.375,-16.75,0.0,-1.875,-19.0625,0.986084,0.165527,0.016724,0.0,0.0,0.0,0.0,-0.32,3.2,9.26,22
4.822629,-0.32,3.19,9.26,-0.125,0.25,0.0,6.75,77.375,-14.375,0.0,-1.875,-19.0625,0.986084,0.165527,0.016724,0.0,0.0,0.0,0.03,-0.32,3.2,9.26,22
4.83359,-0.33,3.17,9.27,-0.0625,0.0,0.0,6.75,77.375,-14.375,0.0,-1.875,-19.0625,0.986084,0.165527,0.016724,0.0,-0.01,-0.02,0.01,-0.32,3.2,9.26,22
4.844551,-0.31,3.16,9.25,0.1875,0.125,0.0625,6.75,77.375,-14.375,0.0,-1.875,-19.0625,0.986084,0.165527,0.016724,0.0,0.0,-0.02,0.0,-0.32,3.2,9.26,22
4.855511,-0.33,3.17,9.25,-0.0625,0.1875,-0.0625,6.75,77.375,-14.375,0.0,-1.875,-19.0625,0.986084,0.165527,0.016724,0.0,0.0,-0.01,0.01,-0.32,3.2,9.26,22
4.866472,-0.32,3.18,9.27,0.125,0.0625,0.0625,6.75,77.375,-14.375,0.0,-1.875,-19.0625,0.986084,0.165527,0.016724,0.0,0.0,-0.01,0.01,-0.32,3.2,9.26,22
4.877432,-0.33,3.18,9.27,-0.375,-0.125,-0.125,4.875,77.375,-16.0,0.0,-1.875,-19.0625,0.986084,0.165527,0.016724,0.0,0.01,0.02,0.0,-0.32,3.2,9.26,22
4.888393,-0.31,3.22,9.26,0.125,-0.125,-0.0625,4.875,77.375,-16.0,0.0,-1.875,-19.0625,0.986084,0.165527,0.016724,0.0,-0.01,0.0,-0.02,-0.32,3.2,9.26,22
4.899353,-0.33,3.19,9.24,0.0,-0.1875,0.0625,4.875,77.375,-16.0,0.0,-1.875,-19.0625,0.986084,0.165527,0.016724,0.0,0.01,0.0,0.02,-0.32,3.2,9.26,22
4.910314,-0.31,3.19,9.28,-0.1875,0.1875,-0.0625,4.875,77.375,-16.0,0.0,-1.875,-19.0625,0.986084,0.165527,0.016724,0.0,0.0,-0.01,0.0,-0.32,3.2,9.26,22
4.921274,-0.33,3.18,9.26,0.0,0.3125,-0.0625,4.5,78.0625,-14.75,0.0,-1.875,-19.0625,0.986084,0.165527,0.016724,0.0,-0.01,0.0,0.01,-0.32,3.2,9.26,22
4.932235,-0.33,3.19,9.27,-0.0625,0.125,-0.125,4.5,78.0625,-14.75,0.0,-1.875,-19.0625,0.986084,0.165527,0.016724,0.0,0.0,0.0,0.0,-0.32,3.2,9.26,22
4.943195,-0.32,3.19,9.25,0.0,0.25,0.0,4.5,78.0625,-14.75,0.0,-1.875,-19.0625,0.986084,0.165527,0.016724,0.0,0.0,0.02,0.0,-0.32,3.2,9.26,22
4.954156,-0.32,3.22,9.25,0.1875,0.0625,0.0,4.5,78.0625,-14.75,0.0,-1.875,-19.0625,0.986084,0.165527,0.016724,0.0,0.0,-0.02,0.0,-0.32,3.2,9.26,22
4.965116,-0.33,3.17,9.26,0.1875,-0.125,-0.125,4.5,78.0625,-14.75,0.0,-1.875,-19.0625,0.986084,0.165527,0.016724,0.0,0.0,0.0,0.03,-0.32,3.2,9.26,22
4.976077,-0.32,3.19,9.29,0.0,0.125,-0.1875,2.25,78.5,-11.25,0.0,-1.875,-19.0625,0.986084,0.165527,0.016724,0.0,0.0,0.0,0.0,-0.32,3.2,9.26,22
4.987037,-0.32,3.18,9.25,-0.1875,0.0,0.0625,2.25,78.5,-11.25,0.0,-1.875,-19.0625,0.986084,0.165527,0.016724,0.0,0.0,-0.01,0.0,-0.32,3.2,9.26,22
4.997998,-0.32,3.18,9.25,-0.1875,-0.1875,-0.125,2.25,78.5,-11.25,0.0,-1.875,-19.0625,0.986084,0.165527,0.016724,0.0,-0.01,0.0,0.0,-0.32,3.2,9.26,22
5.008958,-0.33,3.19,9.25,-0.0625,0.125,-0.125,2.25,78.5,-11.25,0.0,-1.875,-19.0625,0.986084,0.165527,0.016724,0.0,0.0,-0.01,0.02,-0.32,3.2,9.26,22
5.019919,-0.33,3.18,9.29,0.0625,-0.125,0.125,2.25,78.5,-11.25,0.0,-1.875,-19.0625,0.986084,0.165527,0.016724,0.0,0.0,-0.01,0.02,-0.32,3.2,9.26,22
5.030879,-0.33,3.19,9.25,-0.1875,0.0,-0.0625,3.0,78.0625,-13.25,0.0,-1.875,-19.0625,0.986084,0.165527,0.016724,0.0,0.0,0.0,0.02,-0.32,3.2,9.26,22
5.04184,-0.32,3.2,9.28,-0.25,0.0,-0.0625,3.0,78.0625,-13.25,0.0,-1.875,-19.0625,0.986084,0.165527,0.016724,0.0,0.0,0.0,0.0,-0.32,3.2,9.26,22
5.0528,-0.32,3.2,9.25,0.125,-0.0625,-0.0625,3.0,78.0625,-13.25,0.0,-1.875,-19.0625,0.986084,0.165527,0.016724,0.0,0.0,-0.02,0.02,-0.32,3.2,9.26,22
5.063761,-0.31,3.17,9.28,-0.0625,-0.25,-0.125,3.0,78.0625,-13.25,0.0,-1.875,-19.0625,0.986084,0.165527,0.016724,0.0,0.0,0.0,0.02,-0.32,3.2,9.26,22
5.074721,-0.33,3.19,9.29,0.0,-0.0625,0.0,3.0,78.0625,-13.25,0.0,-1.875,-19.0625,0.986084,0.165527,0.016724,0.0,0.0,0.0,0.02,-0.32,3.2,9.26,22
5.085682,-0.31,3.2,9.25,-0.125,0.0,0.0,4.5,77.0,-15.25,0.0,-1.875,-19.0625,0.986084,0.165527,0.016724,0.0,0.0,0.0,0.02,-0.32,3.2,9.26,22
5.096642,-0.32,3.2,9.28,-0.1875,-0.125,-0.0625,4.5,77.0,-15.25,0.0,-1.875,-19.0625,0.986084,0.165527,0.016724,0.0,0.0,0.0,0.01,-0.32,3.2,9.26,22
5.107603,-0.33,3.19,9.27,-0.1875,0.125,0.125,4.5,77.0,-15.25,0.0,-1.875,-19.0625,0.986084,0.165527,0.016724,0.0,0.0,0.0,0.01,-0.32,3.2,9.26,22
5.118564,-0.31,3.19,9.27,0.0625,0.25,-0.125,4.5,77.0,-15.25,0.0,-1.875,-19.0625,0.986084,0.165527,0.016724,0.0,0.0,0.0,0.0,-0.32,3.2,9.26,22
5.129524,-0.32,3.2,9.26,0.125,0.0625,-0.0625,3.75,77.75,-10.0625,0.0,-1.875,-19.0625,0.986084,0.165527,0.016724,0.0,0.0,0.0,0.0,-0.32,3.2,9.26,22
5.140485,-0.32,3.18,9.26,0.0,0.1875,0.0625,3.75,77.75,-10.0625,0.0,-1.875,-19.0625,0.986084,0.165527,0.016724,0.0,0.0,-0.01,0.0,-0.32,3.2,9.26,22
5.151445,-0.32,3.19,9.25,-0.125,-0.0625,0.0625,3.75,77.75,-10.0625,0.0,-1.875,-19.0625,0.986084,0.165527,0.016724,0.0,0.0,-0.01,0.0,-0.32,3.2,9.26,22
5.162406,-0.33,3.18,9.26,0.0,0.0625,0.0,3.75,77.75,-10.0625,0.0,-1.875,-19.0625,0.986084,0.165527,0.016724,0.0,-0.01,0.0,0.02,-0.32,3.2,9.26,22
5.173366,-0.33,3.19,9.28,0.0625,0.0625,-0.0625,3.75,77.75,-10.0625,0.0,-1.875,-19.0625,0.986084,0.165527,0.016724,0.0,-0.01,0.0,0.02,-0.32,3.2,9.26,22
5.184327,-0.32,3.17,9.27,0.0,0.0,0.0,1.0625,78.0625,-10.5,0.0,-1.875,-19.0625,0.986084,0.165527,0.016724,0.0,0.0,0.0,0.01,-0.32,3.2,9.26,22
5.195287,-0.31,3.2,9.27,0.0625,-0.125,0.125,1.0625,78.0625,-10.5,0.0,-1.875,-19.0625,0.986084,0.165527,0.016724,0.0,0.0,0.0,0.01,-0.32,3.2,9.26,22
5.206248,-0.32,3.2,9.27,0.0,0.0,-0.125,1.0625,78.0625,-10.5,0.0,-1.875,-19.0625,0.986084,0.165527,0.016724,0.0,0.0,0.0,0.0,-0.32,3.2,9.26,22
5.217208,-0.31,3.19,9.26,-0.125,0.0,0.0,1.0625,78.0625,-10.5,0.0,-1.875,-19.0625,0.986084,0.165527,0.016724,0.0,0.0,-0.02,0.0,-0.32,3.2,9.26,22
5.228169,-0.31,3.17,9.26,-0.0625,0.125,0.0625,2.5625,78.5,-12.0625,0.0,-1.875,-19.0625,0.986084,0.165527,0.016724,0.0,0.0,-0.01,0.01,-0.32,3.2,9.26,22
5.239129,-0.32,3.18,9.27,0.0,0.125,0.0,2.5625,78.5,-12.0625,0.0,-1.875,-19.0625,0.986084,0.165527,0.016724,0.0,0.0,0.0,0.02,-0.32,3.2,9.26,22
5.25009,-0.32,3.19,9.29,-0.1875,0.1875,-0.0625,2.5625,78.5,-12.0625,0.0,-1.875,-19.0625,0.986084,0.165527,0.016724,0.0,0.0,-0.02,0.0,-0.32,3.2,9.26,22
5.26105,-0.32,3.17,9.26,-0.125,-0.375,0.0,2.5625,78.5,-12.0625,0.0,-1.875,-19.0625,0.986084,0.165527,0.016724,0.0,0.0,0.0,0.0,-0.32,3.2,9.26,22
5.272011,-0.32,3.2,9.26,-0.0625,-0.125,-0.0625,2.5625,78.5,-12.0625,0.0,-1.875,-19.0625,0.986084,0.165527,0.016724,0.0,0.0,0.0,0.02,-0.32,3.2,9.26,22
5.282971,-0.32,3.19,9.28,-0.0625,0.0,0.0,1.875,78.5,-11.6875,0.0,-1.875,-19.0625,0.986084,0.165527,0.016724,0.0,0.0,0.0,0.02,-0.32,3.2,9.26,22
5.293932,-0.32,3.17,9.27,0.0,0.0625,-0.0625,1.875,78.5,-11.6875,0.0,-1.875,-19.0625,0.986084,0.165527,0.016724,0.0,0.0,-0.02,0.01,-0.32,3.2,9.26,22
5.304892,-0.32,3.18,9.26,-0.0625,-0.25,0.125,1.875,78.5,-11.6875,0.0,-1.875,-19.0625,0.986084,0.165527,0.016724,0.0,0.0,0.0,0.01,-0.32,3.2,9.26,22
5.315853,-0.32,3.2,9.27,-0.0625,-0.0625,0.0625,1.875,78.5,-11.6875,0.0,-1.875,-19.0625,0.986084,0.165527,0.016724,0.0,0.01,0.0,0.0,-0.32,3.2,9.26,22
5.326813,-0.31,3.19,9.26,-0.0625,0.125,-0.0625,1.875,78.5,-11.6875,0.0,-1.875,-19.0625,0.986084,0.165527,0.016724,0.0,0.01,0.0,0.0,-0.32,3.2,9.26,22
5.337774,-0.32,3.2,9.26,-0.1875,-0.0625,0.0625,2.5625,79.5625,-11.25,0.0,-1.875,-19.0625,0.986084,0.165527,0.016724,0.0,0.0,-0.02,0.0,-0.32,3.2,9.26,22
5.348734,-0.32,3.17,9.26,-0.0625,0.0,0.0625,2.5625,79.5625,-11.25,0.0,-1.875,-19.0625,0.986084,0.165527,0.016724,0.0,0.0,-0.01,0.02,-0.32,3.2,9.26,22
5.359695,-0.32,3.18,9.28,-0.125,0.0625,-0.125,2.5625,79.5625,-11.25,0.0,-1.875,-19.0625,0.986084,0.165527,0.016724,0.0,0.0,0.0,0.0,-0.32,3.2,9.26,22
5.370656,-0.32,3.19,9.25,-0.375,-0.0625,-0.0625,2.5625,79.5625,-11.25,0.0,-1.875,-19.0625,0.986084,0.165527,0.016724,0.0,0.0,0.0,0.0,-0.32,3.2,9.26,22
5.381616,-0.32,3.19,9.26,-0.0625,-0.125,-0.125,1.0625,78.875,-10.0625,0.0,-1.875,-19.0625,0.986084,0.165527,0.016724,0.0,0.0,0.0,0.0,-0.32,3.2,9.26,22
5.392577,-0.33,3.2,9.25,0.0,0.1875,0.0,1.0625,78.875,-10.0625,0.0,-1.875,-19.0625,0.986084,0.165527,0.016724,0.0,0.0,0.0,0.02,-0.32,3.2,9.26,22
5.403537,-0.31,3.19,9.28,0.0,0.0,0.0,1.0625,78.875,-10.0625,0.0,-1.875,-19.0625,0.986084,0.165527,0.016724,0.0,0.0,-0.01,0.0,-0.32,3.2,9.26,22
5.414498,-0.32,3.18,9.25,-0.125,0.0625,0.0625,1.0625,78.875,-10.0625,0.0,-1.875,-19.0625,0.986084,0.165527,0.016724,0.0,0.0,-0.01,0.01,-0.32,3.2,9.26,22
5.425458,-0.32,3.18,9.27,0.0,0.125,-0.125,1.0625,78.875,-10.0625,0.0,-1.875,-19.0625,0.986084,0.165527,0.016724,0.0,0.01,-0.01,0.01,-0.32,3.2,9.26,22
5.436419,-0.31,3.18,9.27,-0.0625,0.0625,-0.125,3.375,78.875,-11.25,0.0,-1.875,-19.0625,0.986084,0.165527,0.016724,0.0,0.0,0.0,0.01,-0.32,3.2,9.26,22
5.447379,-0.33,3.2,9.28,-0.0625,0.125,0.0,3.375,78.875,-11.25,0.0,-1.875,-19.0625,0.986084,0.165527,0.016724,0.0,0.0,0.0,0.02,-0.32,3.2,9.26,22
5.45834,-0.32,3.17,9.26,-0.0625,0.0625,0.0,3.375,78.875,-11.25,0.0,-1.875,-19.0625,0.986084,0.165527,0.016724,0.0,0.0,0.0,0.03,-0.32,3.2,9.26,22
5.4693,-0.33,3.19,9.3,-0.3125,0.0625,-0.125,3.375,78.875,-11.25,0.0,-1.875,-19.0625,0.986084,0.165527,0.016724,0.0,0.0,0.0,0.0,-0.32,3.2,9.26,22
5.480261,-0.33,3.19,9.25,0.0625,0.125,-0.0625,3.375,78.875,-11.25,0.0,-1.875,-19.0625,0.986084,0.165527,0.016724,0.0,0.0,0.0,0.0,-0.32,3.2,9.26,22
5.491221,-0.32,3.18,9.29,-0.0625,0.125,0.125,1.5,78.5,-10.5,0.0,-1.875,-19.0625,0.986084,0.165527,0.016724,0.0,0.0,0.01,-0.02,-0.32,3.2,9.26,22
5.502182,-0.32,3.21,9.23,-0.125,-0.1875,0.0,1.5,78.5,-10.5,0.0,-1.875,-19.0625,0.986084,0.165527,0.016724,0.0,0.0,0.0,-0.01,-0.32,3.2,9.26,22
5.513142,-0.32,3.2,9.24,-0.125,0.125,0.0,1.5,78.5,-10.5,0.0,-1.875,-19.0625,0.986084,0.165527,0.016724,0.0,0.0,0.0,0.0,-0.32,3.2,9.26,22
5.524103,-0.32,3.19,9.26,-0.0625,0.1875,-0.0625,1.5,78.5,-10.5,0.0,-1.875,-19.0625,0.986084,0.165527,0.016724,0.0,0.0,0.0,0.0,-0.32,3.2,9.26,22
5.535063,-0.32,3.2,9.26,-0.125,0.1875,-0.0625,1.0625,77.375,-11.6875,0.0,-1.875,-19.0625,0.986084,0.165527,0.016724,0.0,0.0,-0.01,0.01,-0.32,3.2,9.26,22
5.546024,-0.33,3.17,9.29,0.125,-0.0625,0.0,1.0625,77.375,-11.6875,0.0,-1.875,-19.0625,0.986084,0.165527,0.016724,0.0,0.0,-0.02,0.02,-0.32,3.2,9.26,22
5.556984,-0.31,3.18,9.26,-0.0625,-0.125,-0.0625,1.0625,77.375,-11.6875,0.0,-1.875,-19.0625,0.986084,0.165527,0.016724,0.0,0.0,-0.01,0.01,-0.32,3.2,9.26,22
5.567945,-0.32,3.18,9.27,0.0,0.125,0.0,1.0625,77.375,-11.6875,0.0,-1.875,-19.0625,0.986084,0.165527,0.016724,0.0,0.0,-0.02,0.02,-0.32,3.2,9.26,22
5.578905,-0.32,3.17,9.29,0.0625,0.3125,-0.0625,1.0625,77.375,-11.6875,0.0,-1.875,-19.0625,0.986084,0.165527,0.016724,0.0,0.0,-0.02,0.02,-0.32,3.2,9.26,22
5.589866,-0.32,3.17,9.25,-0.0625,0.0,0.0625,2.25,78.5,-10.875,0.0,-1.875,-19.0625,0.986084,0.165527,0.016724,0.0,0.0,-0.02,0.01,-0.32,3.2,9.26,22
5.600826,-0.32,3.17,9.27,0.0625,0.125,-0.0625,2.25,78.5,-10.875,0.0,-1.875,-19.0625,0.986084,0.165527,0.016724,0.0,0.0,-0.02,-0.01,-0.32,3.2,9.26,22
5.611787,-0.33,3.17,9.24,0.0625,-0.125,0.0625,2.25,78.5,-10.875,0.0,-1.875,-19.0625,0.986084,0.165527,0.016724,0.0,0.0,0.0,0.01,-0.32,3.2,9.26,22
5.622748,-0.32,3.19,9.27,0.3125,0.125,0.0,2.25,78.5,-10.875,0.0,-1.875,-19.0625,0.986084,0.165527,0.016724,0.0,0.0,0.0,0.02,-0.32,3.2,9.26,22
5.633708,-0.32,3.2,9.28,-0.125,0.0,0.0,3.0,78.5,-9.75,0.0,-1.875,-19.0625,0.986084,0.165527,0.016724,0.0,0.0,0.0,0.0,-0.32,3.2,9.26,22
5.644669,-0.33,3.19,9.27,-0.3125,-0.3125,-0.125,3.0,78.5,-9.75,0.0,-1.875,-19.0625,0.986084,0.165527,0.016724,0.0,0.0,0.0,0.01,-0.32,3.2,9.26,22
5.655629,-0.32,3.19,9.26,-0.1875,0.0,0.0,3.0,78.5,-9.75,0.0,-1.875,-19.0625,0.986084,0.165527,0.016724,0.0,0.0,0.0,0.02,-0.32,3.2,9.26,22
5.66659,-0.32,3.2,9.28,0.125,0.0625,-0.125,3.0,78.5,-9.75,0.0,-1.875,-19.0625,0.986084,0.165527,0.016724,0.0,0.0,-0.03,0.0,-0.32,3.2,9.26,22
5.67755,-0.32,3.16,9.26,0.0,0.0625,-0.0625,3.0,78.5,-9.75,0.0,-1.875,-19.0625,0.986084,0.165527,0.016724,0.0,0.0,-0.03,0.0,-0.32,3.2,9.26,22
5.688511,-0.32,3.18,9.26,-0.1875,0.0,-0.125,2.25,78.875,-11.6875,0.0,-1.875,-19.0625,0.986084,0.165527,0.016724,0.0,0.0,0.0,0.02,-0.32,3.2,9.26,22
5.699471,-0.32,3.19,9.29,0.0625,0.1875,0.0625,2.25,78.875,-11.6875,0.0,-1.875,-19.0625,0.986084,0.165527,0.016724,0.0,0.0,0.0,0.02,-0.32,3.2,9.26,22
5.710432,-0.32,3.2,9.28,0.0625,0.0,-0.0625,2.25,78.875,-11.6875,0.0,-1.875,-19.0625,0.986084,0.165527,0.016724,0.0,0.0,0.0,0.03,-0.32,3.2,9.26,22
5.721392,-0.32,3.2,9.29,0.125,0.0625,-0.125,2.25,78.875,-11.6875,0.0,-1.875,-19.0625,0.986084,0.165527,0.016724,0.0,-0.01,0.0,0.0,-0.32,3.2,9.26,22
5.732353,-0.33,3.2,9.26,0.1875,0.1875,-0.125,5.5625,77.0,-12.5,0.0,-1.875,-19.0625,0.986084,0.165527,0.016724,0.0,0.0,0.01,0.0,-0.32,3.2,9.26,22
5.743313,-0.32,3.18,9.25,-0.25,0.125,0.0,5.5625,77.0,-12.5,0.0,-1.875,-19.0625,0.986084,0.165527,0.016724,0.0,0.0,-0.01,-0.01,-0.32,3.2,9.26,22
5.754274,-0.32,3.18,9.25,-0.1875,-0.0625,0.0,5.5625,77.0,-12.5,0.0,-1.875,-19.0625,0.986084,0.165527,0.016724,0.0,0.0,0.0,0.01,-0.32,3.2,9.26,22
5.765234,-0.31,3.19,9.27,-0.25,-0.125,-0.125,5.5625,77.0,-12.5,0.0,-1.875,-19.0625,0.986084,0.165527,0.016724,0.0,0.0,0.0,0.02,-0.32,3.2,9.26,22
5.776195,-0.32,3.19,9.28,-0.0625,-0.0625,-0.125,5.5625,77.0,-12.5,0.0,-1.875,-19.0625,0.986084,0.165527,0.016724,0.0,0.0,0.0,0.02,-0.32,3.2,9.26,22
5.787155,-0.32,3.18,9.28,0.1875,0.0625,-0.0625,2.25,79.25,-10.5,0.0,-1.875,-19.0625,0.986084,0.165527,0.016724,0.0,-0.01,0.0,0.01,-0.32,3.2,9.26,22
5.798116,-0.33,3.19,9.27,-0.0625,-0.125,0.0,2.25,79.25,-10.5,0.0,-1.875,-19.0625,0.986084,0.165527,0.016724,0.0,0.0,0.0,0.0,-0.32,3.2,9.26,22
5.809076,-0.32,3.19,9.26,0.1875,0.1875,0.0,2.25,79.25,-10.5,0.0,-1.875,-19.0625,0.986084,0.165527,0.016724,0.0,-0.01,0.0,0.0,-0.32,3.2,9.26,22
5.820037,-0.33,3.19,9.25,-0.0625,0.125,0.0,2.25,79.25,-10.5,0.0,-1.875,-19.0625,0.986084,0.165527,0.016724,0.0,0.0,-0.01,0.01,-0.32,3.2,9.26,22
5.830997,-0.33,3.18,9.27,-0.0625,-0.0625,0.0,3.0,79.5625,-10.5,0.0,-1.875,-19.0625,0.986084,0.165527,0.016724,0.0,0.0,-0.02,0.01,-0.32,3.2,9.26,22
5.841958,-0.32,3.17,9.26,-0.0625,0.125,0.0625,3.0,79.5625,-10.5,0.0,-1.875,-19.0625,0.986084,0.165527,0.016724,0.0,0.0,-0.02,0.0,-0.32,3.2,9.26,22
5.852918,-0.33,3.19,9.27,0.0625,-0.25,0.0,3.0,79.5625,-10.5,0.0,-1.875,-19.0625,0.986084,0.165527,0.016724,0.0,0.0,0.0,0.01,-0.32,3.2,9.26,22
5.863879,-0.32,3.19,9.25,0.0625,0.125,0.0,3.0,79.5625,-10.5,0.0,-1.875,-19.0625,0.986084,0.165527,0.016724,0.0,0.0,0.0,0.01,-0.32,3.2,9.26,22
5.87484,-0.32,3.2,9.27,-0.125,0.0,0.0,3.0,79.5625,-10.5,0.0,-1.875,-19.0625,0.986084,0.165527,0.016724,0.0,0.0,0.0,0.01,-0.32,3.2,9.26,22
5.8858,-0.31,3.2,9.27,0.125,-0.0625,0.0625,2.25,78.0625,-11.25,0.0,-1.875,-19.0625,0.986084,0.165527,0.016724,0.0,0.01,0.0,0.01,-0.32,3.2,9.26,22
5.896761,-0.3,3.2,9.27,-0.0625,0.0,0.0625,2.25,78.0625,-11.25,0.0,-1.875,-19.0625,0.986084,0.165527,0.016724,0.0,0.0,-0.02,0.0,-0.32,3.2,9.26,22
5.907721,-0.32,3.17,9.26,-0.125,0.0625,-0.0625,2.25,78.0625,-11.25,0.0,-1.875,-19.0625,0.986084,0.165527,0.016724,0.0,0.0,-0.01,0.01,-0.32,3.2,9.26,22
5.918682,-0.32,3.18,9.27,-0.125,0.0,-0.0625,2.25,78.0625,-11.25,0.0,-1.875,-19.0625,0.986084,0.165527,0.016724,0.0,0.0,0.0,0.02,-0.32,3.2,9.26,22
5.929642,-0.32,3.19,9.28,0.0,0.125,-0.0625,3.0,77.75,-11.6875,0.0,-1.875,-19.0625,0.986084,0.165527,0.016724,0.0,0.0,0.01,0.0,-0.32,3.2,9.26,22
5.940603,-0.32,3.21,9.26,0.125,0.125,-0.125,3.0,77.75,-11.6875,0.0,-1.875,-19.0625,0.986084,0.165527,0.016724,0.0,0.0,0.0,0.0,-0.32,3.2,9.26,22
5.951563,-0.32,3.2,9.25,0.0625,-0.1875,0.0,3.0,77.75,-11.6875,0.0,-1.875,-19.0625,0.986084,0.165527,0.016724,0.0,0.0,-0.01,-0.01,-0.32,3.2,9.26,22
5.962524,-0.32,3.18,9.24,0.125,0.0,0.125,3.0,77.75,-11.6875,0.0,-1.875,-19.0625,0.986084,0.165527,0.016724,0.0,-0.01,0.0,0.01,-0.32,3.2,9.26,22
5.973484,-0.33,3.2,9.27,-0.0625,0.25,-0.125,3.0,77.75,-11.6875,0.0,-1.875,-19.0625,0.986084,0.165527,0.016724,0.0,0.0,0.0,0.0,-0.32,3.2,9.26,22
5.984445,-0.33,3.19,9.25,0.0,0.0625,0.0,6.375,76.5625,-14.375,0.0,-1.875,-19.0625,0.986084,0.165527,0.016724,0.0,0.0,0.0,-0.02,-0.32,3.2,9.26,22
5.995405,-0.33,3.19,9.24,-0.125,0.1875,0.0,6.375,76.5625,-14.375,0.0,-1.875,-19.0625,0.986084,0.165527,0.016724,0.0,0.0,-0.01,0.01,-0.32,3.2,9.26,22
6.006366,-0.32,3.18,9.27,-0.0625,0.125,0.0,6.375,76.5625,-14.375,0.0,-1.875,-19.0625,0.986084,0.165527,0.016724,0.0,0.0,0.0,0.0,-0.32,3.2,9.26,22
6.017326,-0.32,3.19,9.25,-0.0625,-0.0625,-0.0625,6.375,76.5625,-14.375,0.0,-1.875,-19.0625,0.986084,0.165527,0.016724,0.0,0.0,-0.01,0.01,-0.32,3.2,9.26,22
6.028287,-0.32,3.18,9.27,0.125,-0.125,-0.0625,6.375,76.5625,-14.375,0.0,-1.875,-19.0625,0.986084,0.165527,0.016724,0.0,-0.01,0.0,0.01,-0.32,3.2,9.26,22
6.039247,-0.33,3.2,9.27,-0.0625,-0.125,-0.125,6.0,77.75,-15.5625,0.0,-1.875,-19.0625,0.986084,0.165527,0.016724,0.0,0.0,0.01,0.0,-0.32,3.2,9.26,22
6.050208,-0.33,3.2,9.27,-0.125,0.0,-0.0625,6.0,77.75,-15.5625,0.0,-1.875,-19.0625,0.986084,0.165527,0.016724,0.0,-0.01,0.0,0.01,-0.32,3.2,9.26,22
6.061168,-0.32,3.18,9.25,-0.125,0.0625,0.0,6.0,77.75,-15.5625,0.0,-1.875,-19.0625,0.986084,0.165527,0.016724,0.0,0.0,0.0,0.0,-0.32,3.2,9.26,22
6.072129,-0.31,3.19,9.25,0.0,0.125,-0.125,6.0,77.75,-15.5625,0.0,-1.875,-19.0625,0.986084,0.165527,0.016724,0.0,0.0,0.0,0.01,-0.32,3.2,9.26,22
6.083089,-0.32,3.19,9.27,-0.0625,-0.1875,-0.0625,6.0,77.75,-15.5625,0.0,-1.875,-19.0625,0.986084,0.165527,0.016724,0.0,0.0,0.0,0.01,-0.32,3.2,9.26,22
6.09405,-0.32,3.17,9.28,-0.0625,0.0625,0.0,3.75,77.75,-16.75,0.0,-1.875,-19.0625,0.986084,0.165527,0.016724,0.0,0.0,-0.01,0.0,-0.32,3.2,9.26,22
6.10501,-0.32,3.18,9.26,-0.0625,-0.0625,0.1875,3.75,77.75,-16.75,0.0,-1.875,-19.0625,0.986084,0.165527,0.016724,0.0,0.0,0.0,0.0,-0.32,3.2,9.26,22
6.115971,-0.31,3.2,9.26,-0.125,0.1875,-0.0625,3.75,77.75,-16.75,0.0,-1.875,-19.0625,0.986084,0.165527,0.016724,0.0,0.0,-0.01,0.0,-0.32,3.2,9.26,22
6.126932,-0.33,3.18,9.25,-0.1875,0.0625,0.0,3.75,77.75,-16.75,0.0,-1.875,-19.0625,0.986084,0.165527,0.016724,0.0,0.0,-0.01,0.0,-0.32,3.2,9.26,22
6.137892,-0.32,3.18,9.26,-0.25,0.1875,-0.125,6.0,77.0,-14.75,0.0,-1.875,-19.0625,0.986084,0.165527,0.016724,0.0,0.0,-0.02,0.01,-0.32,3.2,9.26,22
6.148853,-0.31,3.19,9.28,-0.0625,-0.0625,0.125,6.0,77.0,-14.75,0.0,-1.875,-19.0625,0.986084,0.165527,0.016724,0.0,0.0,0.0,0.02,-0.32,3.2,9.26,22
6.159813,-0.32,3.19,9.27,-0.125,-0.25,-0.0625,6.0,77.0,-14.75,0.0,-1.875,-19.0625,0.986084,0.165527,0.016724,0.0,-0.01,0.01,0.02,-0.32,3.2,9.26,22
6.170774,-0.33,3.21,9.28,-0.125,-0.0625,0.0,6.0,77.0,-14.75,0.0,-1.875,-19.0625,0.986084,0.165527,0.016724,0.0,0.0,0.0,0.01,-0.32,3.2,9.26,22
6.181734,-0.32,3.2,9.27,-0.25,0.125,0.0625,6.0,77.0,-14.75,0.0,-1.875,-19.0625,0.986084,0.165527,0.016724,0.0,0.0,0.0,0.01,-0.32,3.2,9.26,22
6.192695,-0.32,3.19,9.27,-0.0625,0.0625,0.0,1.5,78.875,-10.875,0.0,-1.875,-19.0625,0.986084,0.165527,0.016724,0.0,-0.01,-0.01,0.03,-0.32,3.2,9.26,22
6.203655,-0.33,3.18,9.29,0.0625,0.1875,-0.1875,1.5,78.875,-10.875,0.0,-1.875,-19.0625,0.986084,0.165527,0.016724,0.0,0.01,0.0,0.0,-0.32,3.2,9.26,22
6.214616,-0.31,3.19,9.26,0.0,0.0625,-0.0625,1.5,78.875,-10.875,0.0,-1.875,-19.0625,0.986084,0.165527,0.016724,0.0,0.0,0.0,0.0,-0.32,3.2,9.26,22
6.225576,-0.32,3.2,9.26,0.0625,-0.125,-0.125,1.5,78.875,-10.875,0.0,-1.875,-19.0625,0.986084,0.165527,0.016724,0.0,0.0,0.01,0.0,-0.32,3.2,9.26,22
6.236537,-0.31,3.21,9.26,0.0625,0.125,-0.1875,3.0,78.875,-11.25,0.0,-1.875,-19.0625,0.986084,0.165527,0.016724,0.0,0.0,-0.02,0.04,-0.32,3.2,9.26,22
6.247497,-0.31,3.17,9.31,0.125,0.0625,-0.125,3.0,78.875,-11.25,0.0,-1.875,-19.0625,0.986084,0.165527,0.016724,0.0,0.0,0.0,-0.01,-0.32,3.2,9.26,22
6.258458,-0.33,3.18,9.25,-0.0625,0.125,0.0,3.0,78.875,-11.25,0.0,-1.875,-19.0625,0.986084,0.165527,0.016724,0.0,0.0,-0.01,0.0,-0.32,3.2,9.26,22
6.269418,-0.32,3.2,9.28,-0.0625,-0.1875,-0.0625,3.0,78.875,-11.25,0.0,-1.875,-19.0625,0.986084,0.165527,0.016724,0.0,0.0,0.0,0.02,-0.32,3.2,9.26,22
6.280379,-0.32,3.17,9.28,0.0,-0.1875,0.0,3.0,78.875,-11.25,0.0,-1.875,-19.0625,0.986084,0.165527,0.016724,0.0,0.0,-0.02,0.02,-0.32,3.2,9.26,22
6.291339,-0.31,3.2,9.28,0.0,0.0,0.0625,4.0625,77.75,-14.375,0.0,-1.875,-19.0625,0.986084,0.165527,0.016724,0.0,0.0,0.0,0.0,-0.32,3.2,9.26,22
6.3023,-0.32,3.19,9.26,-0.0625,0.0625,-0.0625,4.0625,77.75,-14.375,0.0,-1.875,-19.0625,0.986084,0.165527,0.016724,0.0,0.0,-0.02,-0.02,-0.32,3.2,9.26,22
6.31326,-0.32,3.17,9.24,0.1875,0.125,0.125,4.0625,77.75,-14.375,0.0,-1.875,-19.0625,0.986084,0.165527,0.016724,0.0,0.0,-0.02,-0.01,-0.32,3.2,9.26,22
6.324221,-0.33,3.17,9.25,-0.125,0.0625,-0.125,4.0625,77.75,-14.375,0.0,-1.875,-19.0625,0.986084,0.165527,0.016724,0.0,0.01,-0.02,0.0,-0.32,3.2,9.26,22
6.335181,-0.31,3.17,9.26,0.0,0.0625,-0.1875,2.5625,78.5,-10.5,0.0,-1.875,-19.0625,0.986084,0.165527,0.016724,0.0,0.0,0.0,0.01,-0.32,3.2,9.26,22
6.346142,-0.32,3.2,9.27,0.125,0.0625,-0.125,2.5625,78.5,-10.5,0.0,-1.875,-19.0625,0.986084,0.165527,0.016724,0.0,0.0,0.0,0.0,-0.32,3.2,9.26,22
6.357102,-0.32,3.19,9.25,0.0625,0.0,-0.0625,2.5625,78.5,-10.5,0.0,-1.875,-19.0625,0.986084,0.165527,0.016724,0.0,0.0,0.0,0.0,-0.32,3.2,9.26,22
6.368063,-0.32,3.2,9.26,-0.125,0.125,0.0,2.5625,78.5,-10.5,0.0,-1.875,-19.0625,0.986084,0.165527,0.016724,0.0,-0.01,0.0,0.0,-0.32,3.2,9.26,22
6.379024,-0.33,3.2,9.26,-0.1875,0.1875,0.0,2.5625,78.5,-10.5,0.0,-1.875,-19.0625,0.986084,0.165527,0.016724,0.0,0.0,-0.01,0.0,-0.32,3.2,9.26,22
6.389984,-0.32,3.18,9.25,0.125,0.25,0.0625,2.5625,78.5,-11.6875,0.0,-1.875,-19.0625,0.986084,0.165527,0.016724,0.0,0.0,-0.01,0.03,-0.32,3.2,9.26,22
6.400945,-0.32,3.18,9.29,-0.0625,0.0625,-0.0625,2.5625,78.5,-11.6875,0.0,-1.875,-19.0625,0.986084,0.165527,0.016724,0.0,0.0,0.0,0.0,-0.32,3.2,9.26,22
6.411905,-0.32,3.19,9.25,0.0625,-0.1875,-0.1875,2.5625,78.5,-11.6875,0.0,-1.875,-19.0625,0.986084,0.165527,0.016724,0.0,0.0,-0.01,0.02,-0.32,3.2,9.26,22
6.422866,-0.32,3.18,9.28,-0.0625,-0.0625,0.0,2.5625,78.5,-11.6875,0.0,-1.875,-19.0625,0.986084,0.165527,0.016724,0.0,0.0,0.0,0.0,-0.32,3.2,9.26,22
6.433826,-0.32,3.19,9.26,-0.125,-0.25,-0.0625,2.5625,78.5,-11.6875,0.0,-1.875,-19.0625,0.986084,0.165527,0.016724,0.0,0.0,0.0,0.0,-0.32,3.2,9.26,22
6.444787,-0.32,3.19,9.25,0.0,0.0,0.0,1.875,78.0625,-10.875,0.0,-1.875,-19.0625,0.986084,0.165527,0.016724,0.0,0.0,0.0,0.0,-0.32,3.2,9.26,22
6.455747,-0.32,3.19,9.25,0.0,0.0625,-0.0625,1.875,78.0625,-10.875,0.0,-1.875,-19.0625,0.986084,0.165527,0.016724,0.0,0.0,-0.02,0.02,-0.32,3.2,9.26,22
6.466708,-0.32,3.17,9.28,0.125,0.0625,-0.0625,1.875,78.0625,-10.875,0.0,-1.875,-19.0625,0.986084,0.165527,0.016724,0.0,0.0,-0.02,0.01,-0.32,3.2,9.26,22
6.477668,-0.31,3.17,9.27,-0.0625,0.1875,-0.0625,1.875,78.0625,-10.875,0.0,-1.875,-19.0625,0.986084,0.165527,0.016724,0.0,0.0,0.0,0.0,-0.32,3.2,9.26,22
6.488629,-0.31,3.19,9.26,-0.1875,-0.0625,0.0625,1.875,78.0625,-10.875,0.0,-1.875,-19.0625,0.986084,0.165527,0.016724,0.0,0.0,0.0,0.02,-0.32,3.2,9.26,22
6.499589,-0.31,3.19,9.28,-0.25,-0.0625,-0.1875,2.5625,77.75,-10.875,0.0,-1.875,-19.0625,0.986084,0.165527,0.016724,0.0,0.0,0.0,0.02,-0.32,3.2,9.26,22
6.51055,-0.32,3.19,9.28,-0.125,-0.0625,-0.125,2.5625,77.75,-10.875,0.0,-1.875,-19.0625,0.986084,0.165527,0.016724,0.0,0.0,0.0,0.01,-0.32,3.2,9.26,22
6.52151,-0.33,3.19,9.27,-0.0625,0.0,-0.0625,2.5625,77.75,-10.875,0.0,-1.875,-19.0625,0.986084,0.165527,0.016724,0.0,0.0,0.0,0.0,-0.32,3.2,9.26,22
6.532471,-0.32,3.2,9.26,-0.0625,-0.0625,0.0625,2.5625,77.75,-10.875,0.0,-1.875,-19.0625,0.986084,0.165527,0.016724,0.0,0.0,-0.01,0.01,-0.32,3.2,9.26,22
6.543431,-0.31,3.18,9.27,0.0,0.125,-0.0625,2.5625,77.75,-10.875,0.0,-1.875,-19.0625,0.986084,0.165527,0.016724,0.0,0.0,-0.01,0.02,-0.32,3.2,9.26,22
6.554392,-0.31,3.18,9.28,0.0,0.375,0.0625,1.875,78.5,-10.5625,0.0,-1.875,-19.0625,0.986084,0.165527,0.016724,0.0,0.0,0.0,0.03,-0.32,3.2,9.26,22
6.565352,-0.33,3.19,9.29,0.0,0.125,-0.125,1.875,78.5,-10.5625,0.0,-1.875,-19.0625,0.986084,0.165527,0.016724,0.0,0.0,-0.01,0.0,-0.32,3.2,9.26,22
6.576313,-0.32,3.18,9.26,0.0,0.25,-0.125,1.875,78.5,-10.5625,0.0,-1.875,-19.0625,0.986084,0.165527,0.016724,0.0,0.0,0.0,0.0,-0.32,3.2,9.26,22
6.587273,-0.32,3.2,9.26,0.0625,0.0625,-0.0625,1.875,78.5,-10.5625,0.0,-1.875,-19.0625,0.986084,0.165527,0.016724,0.0,0.0,-0.01,0.01,-0.32,3.2,9.26,22
6.598234,-0.32,3.18,9.27,-0.25,0.0,-0.0625,1.875,78.5,-10.5625,0.0,-1.875,-19.0625,0.986084,0.165527,0.016724,0.0,0.0,-0.01,0.02,-0.32,3.2,9.26,22
6.609194,-0.32,3.18,9.28,0.0,0.125,-0.0625,0.75,79.25,-11.25,0.0,-1.875,-19.0625,0.986084,0.165527,0.016724,0.0,0.0,-0.01,0.01,-0.32,3.2,9.26,22
6.620155,-0.32,3.21,9.25,0.0625,0.0,0.0,0.75,79.25,-11.25,0.0,-1.875,-19.0625,0.986084,0.165527,0.016724,0.0,0.0,0.01,0.0,-0.32,3.2,9.26,22
6.631116,-0.33,3.18,9.26,0.0625,-0.125,0.0,0.75,79.25,-11.25,0.0,-1.875,-19.0625,0.986084,0.165527,0.016724,0.0,0.0,0.0,0.0,-0.32,3.2,9.26,22
6.642076,-0.33,3.2,9.26,0.0625,0.0,0.0625,0.75,79.25,-11.25,0.0,-1.875,-19.0625,0.986084,0.165527,0.016724,0.0,0.0,0.0,0.01,-0.32,3.2,9.26,22
6.653037,-0.33,3.2,9.27,0.0,-0.0625,-0.0625,0.75,79.25,-11.25,0.0,-1.875,-19.0625,0.986084,0.165527,0.016724,0.0,0.0,0.0,0.01,-0.32,3.2,9.26,22
6.663997,-0.31,3.17,9.25,0.0,0.125,-0.0625,1.875,78.5,-10.875,0.0,-1.875,-19.0625,0.986084,0.165527,0.016724,0.0,0.0,0.0,0.0,-0.32,3.2,9.26,22
6.674958,-0.32,3.19,9.26,0.125,0.1875,-0.0625,1.875,78.5,-10.875,0.0,-1.875,-19.0625,0.986084,0.165527,0.016724,0.0,0.0,0.0,0.0,-0.32,3.2,9.26,22
6.685918,-0.31,3.2,9.25,0.3125,0.0,-0.0625,1.875,78.5,-10.875,0.0,-1.875,-19.0625,0.986084,0.165527,0.016724,0.0,0.0,0.01,0.02,-0.32,3.2,9.26,22
6.696879,-0.32,3.21,9.28,0.125,-0.0625,-0.0625,1.875,78.5,-10.875,0.0,-1.875,-19.0625,0.986084,0.165527,0.016724,0.0,0.0,0.0,0.0,-0.32,3.2,9.26,22
6.707839,-0.32,3.19,9.26,0.0,0.125,0.0625,1.0625,78.875,-10.875,0.0,-1.875,-19.0625,0.986084,0.165527,0.016724,0.0,-0.01,-0.01,0.01,-0.32,3.2,9.26,22
6.7188,-0.31,3.18,9.25,0.0,0.0,0.0625,1.0625,78.875,-10.875,0.0,-1.875,-19.0625,0.986084,0.165527,0.016724,0.0,0.01,-0.01,-0.01,-0.32,3.2,9.26,22
6.72976,-0.32,3.2,9.28,0.0625,0.375,0.0,1.0625,78.875,-10.875,0.0,-1.875,-19.0625,0.986084,0.165527,0.016724,0.0,0.0,-0.01,0.0,-0.32,3.2,9.26,22
6.740721,-0.32,3.18,9.25,-0.125,-0.125,-0.0625,1.0625,78.875,-10.875,0.0,-1.875,-19.0625,0.986084,0.165527,0.016724,0.0,0.01,0.0,-0.01,-0.32,3.2,9.26,22
6.751681,-0.3,3.19,9.25,-0.1875,-0.3125,0.0,1.0625,78.875,-10.875,0.0,-1.875,-19.0625,0.986084,0.165527,0.016724,0.0,0.01,0.0,-0.01,-0.32,3.2,9.26,22
6.762642,-0.31,3.21,9.26,0.0625,0.0625,0.0,2.5625,79.25,-11.25,0.0,-1.875,-19.0625,0.986084,0.165527,0.016724,0.0,0.0,0.0,0.0,-0.32,3.2,9.26,22
6.773602,-0.32,3.2,9.25,0.125,0.125,0.0,2.5625,79.25,-11.25,0.0,-1.875,-19.0625,0.986084,0.165527,0.016724,0.0,0.0,0.0,0.0,-0.32,3.2,9.26,22
6.784563,-0.31,3.2,9.26,-0.0625,0.0625,0.0,2.5625,79.25,-11.25,0.0,-1.875,-19.0625,0.986084,0.165527,0.016724,0.0,0.0,0.0,0.0,-0.32,3.2,9.26,22
6.795523,-0.32,3.2,9.26,0.1875,0.125,0.0,2.5625,79.25,-11.25,0.0,-1.875,-19.0625,0.986084,0.165527,0.016724,0.0,0.0,0.0,0.0,-0.32,3.2,9.26,22
6.806484,-0.32,3.19,9.26,0.0,-0.0625,0.125,2.25,78.5,-10.875,0.0,-1.875,-19.0625,0.986084,0.165527,0.016724,0.0,0.0,0.0,0.02,-0.32,3.2,9.26,22
6.817444,-0.32,3.19,9.29,0.0,-0.0625,0.0,2.25,78.5,-10.875,0.0,-1.875,-19.0625,0.986084,0.165527,0.016724,0.0,0.0,-0.01,0.01,-0.32,3.2,9.26,22
6.828405,-0.32,3.18,9.27,-0.1875,0.0,0.0625,2.25,78.5,-10.875,0.0,-1.875,-19.0625,0.986084,0.165527,0.016724,0.0,-0.01,0.0,-0.01,-0.32,3.2,9.26,22
6.839365,-0.33,3.2,9.24,-0.25,0.0,-0.125,2.25,78.5,-10.875,0.0,-1.875,-19.0625,0.986084,0.165527,0.016724,0.0,0.0,0.0,0.01,-0.32,3.2,9.26,22
6.850326,-0.31,3.19,9.27,-0.3125,-0.125,0.0625,2.25,78.5,-10.875,0.0,-1.875,-19.0625,0.986084,0.165527,0.016724,0.0,0.01,0.0,0.01,-0.32,3.2,9.26,22
6.861286,-0.31,3.2,9.27,-0.0625,-0.0625,0.0,5.5625,76.5625,-16.0,0.0,-1.875,-19.0625,0.986084,0.165527,0.016724,0.0,0.0,0.0,0.0,-0.32,3.2,9.26,22
6.872247,-0.32,3.19,9.26,0.0625,0.0,0.0,5.5625,76.5625,-16.0,0.0,-1.875,-19.0625,0.986084,0.165527,0.016724,0.0,0.0,-0.03,0.0,-0.32,3.2,9.26,22
6.883208,-0.32,3.16,9.26,-0.1875,0.0,0.0,5.5625,76.5625,-16.0,0.0,-1.875,-19.0625,0.986084,0.165527,0.016724,0.0,0.0,0.0,0.0,-0.32,3.2,9.26,22
6.894168,-0.32,3.2,9.26,0.0,0.0625,0.0,5.5625,76.5625,-16.0,0.0,-1.875,-19.0625,0.986084,0.165527,0.016724,0.0,0.0,0.0,0.0,-0.32,3.2,9.26,22
6.905129,-0.31,3.2,9.26,0.0625,0.0625,0.125,5.5625,76.5625,-16.0,0.0,-1.875,-19.0625,0.986084,0.165527,0.016724,0.0,0.0,0.0,0.0,-0.32,3.2,9.26,22
6.916089,-0.32,3.19,9.25,0.0625,-0.3125,0.0,3.375,78.0625,-11.6875,0.0,-1.875,-19.0625,0.986084,0.165527,0.016724,0.0,0.0,0.0,0.04,-0.32,3.2,9.26,22
6.92705,-0.32,3.18,9.27,0.125,0.0625,-0.0625,3.375,78.0625,-11.6875,0.0,-1.875,-19.0625,0.986084,0.165527,0.016724,0.0,0.0,-0.01,0.01,-0.32,3.2,9.26,22
6.93801,-0.31,3.19,9.26,-0.125,-0.1875,0.0,3.375,78.0625,-11.6875,0.0,-1.875,-19.0625,0.986084,0.165527,0.016724,0.0,0.0,-0.01,0.0,-0.32,3.2,9.26,22
6.948971,-0.32,3.18,9.26,0.0,0.125,-0.0625,3.375,78.0625,-11.6875,0.0,-1.875,-19.0625,0.986084,0.165527,0.016724,0.0,0.0,-0.02,0.0,-0.32,3.2,9.26,22
6.959931,-0.31,3.17,9.25,-0.0625,-0.125,-0.0625,3.375,78.0625,-11.6875,0.0,-1.875,-19.0625,0.986084,0.165527,0.016724,0.0,0.0,-0.02,0.0,-0.32,3.2,9.26,22
6.970892,-0.32,3.17,9.28,-0.1875,0.0,-0.1875,3.0,77.75,-11.25,0.0,-1.875,-19.0625,0.986084,0.165527,0.016724,0.0,0.0,-0.02,0.02,-0.32,3.2,9.26,22
6.981852,-0.33,3.17,9.28,0.0625,0.0625,0.0625,3.0,77.75,-11.25,0.0,-1.875,-19.0625,0.986084,0.165527,0.016724,0.0,0.0,0.0,0.0,-0.32,3.2,9.26,22
6.992813,-0.33,3.19,9.26,0.25,0.0625,0.0,3.0,77.75,-11.25,0.0,-1.875,-19.0625,0.986084,0.165527,0.016724,0.0,0.0,0.03,0.0,-0.32,3.2,9.26,22
7.003773,-0.32,3.23,9.26,-0.125,-0.0625,0.0,3.0,77.75,-11.25,0.0,-1.875,-19.0625,0.986084,0.165527,0.016724,0.0,0.0,0.02,0.03,-0.32,3.2,9.26,22
7.014734,-0.32,3.22,9.29,-0.125,0.25,-0.125,3.0,77.0,-11.25,0.0,-1.875,-19.0625,0.986084,0.165527,0.016724,0.0,0.0,0.0,0.03,-0.32,3.2,9.26,22
7.025694,-0.32,3.19,9.3,0.0,0.1875,0.125,3.0,77.0,-11.25,0.0,-1.875,-19.0625,0.986084,0.165527,0.016724,0.0,0.0,-0.01,0.02,-0.32,3.2,9.26,22
7.036655,-0.32,3.18,9.29,-0.0625,0.0,0.0625,3.0,77.0,-11.25,0.0,-1.875,-19.0625,0.986084,0.165527,0.016724,0.0,0.0,0.0,0.0,-0.32,3.2,9.26,22
7.047615,-0.31,3.19,9.26,-0.3125,-0.125,-0.0625,3.0,77.0,-11.25,0.0,-1.875,-19.0625,0.986084,0.165527,0.016724,0.0,0.0,-0.02,0.02,-0.32,3.2,9.26,22
7.058576,-0.32,3.17,9.28,0.0,-0.125,-0.0625,3.0,77.0,-11.25,0.0,-1.875,-19.0625,0.986084,0.165527,0.016724,0.0,0.0,0.0,0.02,-0.32,3.2,9.26,22
7.069536,-0.32,3.19,9.28,0.0,0.1875,-0.125,1.875,78.5,-12.5,0.0,-1.875,-19.0625,0.986084,0.165527,0.016724,0.0,0.01,0.0,0.01,-0.32,3.2,9.26,22
7.080497,-0.31,3.19,9.27,0.1875,0.125,0.0625,1.875,78.5,-12.5,0.0,-1.875,-19.0625,0.986084,0.165527,0.016724,0.0,0.0,0.0,0.02,-0.32,3.2,9.26,22
7.091457,-0.32,3.19,9.24,0.0,-0.0625,-0.0625,1.875,78.5,-12.5,0.0,-1.875,-19.0625,0.986084,0.165527,0.016724,0.0,0.0,0.0,-0.02,-0.32,3.2,9.26,22
7.102418,-0.33,3.17,9.25,0.125,-0.0625,-0.0625,1.875,78.5,-12.5,0.0,-1.875,-19.0625,0.986084,0.165527,0.016724,0.0,0.0,-0.02,-0.01,-0.32,3.2,9.26,22
7.113378,-0.33,3.19,9.27,0.125,0.0,0.0,1.875,78.5,-12.5,0.0,-1.875,-19.0625,0.986084,0.165527,0.016724,0.0,0.0,0.0,0.01,-0.32,3.2,9.26,22
7.124339,-0.32,3.18,9.27,-0.125,-0.0625,0.0625,4.875,77.75,-15.5625,0.0,-1.875,-19.0625,0.986084,0.165527,0.016724,0.0,0.0,0.0,0.01,-0.32,3.2,9.26,22
7.135299,-0.32,3.2,9.27,0.0,-0.1875,0.125,4.875,77.75,-15.5625,0.0,-1.875,-19.0625,0.986084,0.165527,0.016724,0.0,0.0,-0.02,0.0,-0.32,3.2,9.26,22
7.14626,-0.31,3.17,9.26,0.0625,0.0625,-0.0625,4.875,77.75,-15.5625,0.0,-1.875,-19.0625,0.986084,0.165527,0.016724,0.0,0.0,-0.01,0.01,-0.32,3.2,9.26,22
7.157221,-0.32,3.18,9.27,-0.125,0.125,-0.0625,4.875,77.75,-15.5625,0.0,-1.875,-19.0625,0.986084,0.165527,0.016724,0.0,0.0,0.0,0.01,-0.32,3.2,9.26,22
7.168181,-0.32,3.2,9.27,-0.25,-0.125,0.0625,5.5625,77.375,-16.0,0.0,-1.875,-19.0625,0.986084,0.165527,0.016724,0.0,0.0,-0.01,0.02,-0.32,3.2,9.26,22
7.179142,-0.32,3.18,9.28,0.0,0.0625,-0.0625,5.5625,77.375,-16.0,0.0,-1.875,-19.0625,0.986084,0.165527,0.016724,0.0,0.0,0.0,0.0,-0.32,3.2,9.26,22
7.190102,-0.33,3.2,9.25,-0.125,-0.0625,0.0,5.5625,77.375,-16.0,0.0,-1.875,-19.0625,0.986084,0.165527,0.016724,0.0,0.0,-0.01,-0.02,-0.32,3.2,9.26,22
7.201063,-0.31,3.18,9.24,-0.1875,0.0,-0.0625,5.5625,77.375,-16.0,0.0,-1.875,-19.0625,0.986084,0.165527,0.016724,0.0,0.0,0.0,0.0,-0.32,3.2,9.26,22
7.212023,-0.31,3.2,9.26,0.0625,-0.125,0.0625,5.5625,77.375,-16.0,0.0,-1.875,-19.0625,0.986084,0.165527,0.016724,0.0,0.0,-0.01,0.02,-0.32,3.2,9.26,22
7.222984,-0.32,3.18,9.29,-0.25,-0.1875,-0.0625,4.875,77.0,-15.5625,0.0,-1.875,-19.0625,0.986084,0.165527,0.016724,0.0,0.01,0.0,0.01,-0.32,3.2,9.26,22
7.233944,-0.3,3.19,9.27,-0.0625,0.0,-0.0625,4.875,77.0,-15.5625,0.0,-1.875,-19.0625,0.986084,0.165527,0.016724,0.0,0.0,0.0,0.0,-0.32,3.2,9.26,22
7.244905,-0.32,3.19,9.25,0.0,0.0625,0.0,4.875,77.0,-15.5625,0.0,-1.875,-19.0625,0.986084,0.165527,0.016724,0.0,0.0,-0.02,0.0,-0.32,3.2,9.26,22
7.255865,-0.31,3.17,9.26,0.125,0.0,0.0625,4.875,77.0,-15.5625,0.0,-1.875,-19.0625,0.986084,0.165527,0.016724,0.0,0.0,-0.01,0.0,-0.32,3.2,9.26,22
7.266826,-0.33,3.18,9.25,-0.3125,-0.0625,-0.0625,4.875,77.0,-15.5625,0.0,-1.875,-19.0625,0.986084,0.165527,0.016724,0.0,0.0,0.0,0.0,-0.32,3.2,9.26,22
7.277786,-0.32,3.19,9.25,-0.125,-0.0625,0.0,3.375,77.75,-16.0,0.0,-1.875,-19.0625,0.986084,0.165527,0.016724,0.0,0.0,0.0,0.01,-0.32,3.2,9.26,22
7.288747,-0.33,3.18,9.27,0.0,0.0,-0.0625,3.375,77.75,-16.0,0.0,-1.875,-19.0625,0.986084,0.165527,0.016724,0.0,-0.01,-0.01,0.01,-0.32,3.2,9.26,22
7.299707,-0.31,3.17,9.24,0.0625,0.125,0.0625,3.375,77.75,-16.0,0.0,-1.875,-19.0625,0.986084,0.165527,0.016724,0.0,0.0,0.0,0.02,-0.32,3.2,9.26,22
7.310668,-0.32,3.19,9.28,-0.25,-0.25,0.0,3.375,77.75,-16.0,0.0,-1.875,-19.0625,0.986084,0.165527,0.016724,0.0,0.0,-0.01,-0.01,-0.32,3.2,9.26,22
7.321628,-0.32,3.18,9.25,0.0625,-0.0625,-0.0625,3.375,77.75,-16.0,0.0,-1.875,-19.0625,0.986084,0.165527,0.016724,0.0,0.0,-0.01,-0.01,-0.32,3.2,9.26,22
7.332589,-0.32,3.18,9.29,-0.125,0.0,0.0,5.5625,76.6875,-15.25,0.0,-1.875,-19.0625,0.986084,0.165527,0.016724,0.0,0.0,0.0,-0.01,-0.32,3.2,9.26,22
7.343549,-0.32,3.19,9.24,0.0625,-0.0625,0.0625,5.5625,76.6875,-15.25,0.0,-1.875,-19.0625,0.986084,0.165527,0.016724,0.0,0.0,0.01,0.0,-0.32,3.2,9.26,22
7.35451,-0.33,3.21,9.26,0.125,0.0625,0.0,5.5625,76.6875,-15.25,0.0,-1.875,-19.0625,0.986084,0.165527,0.016724,0.0,-0.01,-0.03,0.02,-0.32,3.2,9.26,22
7.36547,-0.33,3.16,9.28,0.1875,0.0,-0.0625,5.5625,76.6875,-15.25,0.0,-1.875,-19.0625,0.986084,0.165527,0.016724,0.0,0.0,-0.01,-0.01,-0.32,3.2,9.26,22
7.376431,-0.32,3.18,9.25,0.0,0.0,-0.0625,3.0,78.5,-10.875,0.0,-1.875,-19.0625,0.986084,0.165527,0.016724,0.0,0.0,-0.01,0.0,-0.32,3.2,9.26,22
7.387391,-0.32,3.18,9.25,0.0625,-0.0625,0.0,3.0,78.5,-10.875,0.0,-1.875,-19.0625,0.986084,0.165527,0.016724,0.0,0.0,0.0,0.02,-0.32,3.2,9.26,22
7.398352,-0.31,3.19,9.28,-0.0625,-0.125,0.0,3.0,78.5,-10.875,0.0,-1.875,-19.0625,0.986084,0.165527,0.016724,0.0,0.0,-0.02,0.0,-0.32,3.2,9.26,22
7.409313,-0.32,3.17,9.26,-0.0625,-0.125,-0.0625,3.0,78.5,-10.875,0.0,-1.875,-19.0625,0.986084,0.165527,0.016724,0.0,0.0,-0.01,0.0,-0.32,3.2,9.26,22
7.420273,-0.33,3.18,9.25,-0.0625,0.0,0.0625,3.0,78.5,-10.875,0.0,-1.875,-19.0625,0.986084,0.165527,0.016724,0.0,0.0,0.0,0.0,-0.32,3.2,9.26,22
7.431234,-0.33,3.2,9.26,-0.0625,0.0,0.0625,1.875,78.5,-12.0625,0.0,-1.875,-19.0625,0.986084,0.165527,0.016724,0.0,0.0,0.0,0.0,-0.32,3.2,9.26,22
7.442194,-0.33,3.19,9.26,-0.0625,-0.1875,0.0,1.875,78.5,-12.0625,0.0,-1.875,-19.0625,0.986084,0.165527,0.016724,0.0,0.0,0.0,0.0,-0.32,3.2,9.26,22
7.453155,-0.32,3.19,9.25,0.0625,-0.1875,0.0,1.875,78.5,-12.0625,0.0,-1.875,-19.0625,0.986084,0.165527,0.016724,0.0,0.0,0.0,0.0,-0.32,3.2,9.26,22
7.464115,-0.32,3.19,9.25,0.0,-0.25,-0.0625,1.875,78.5,-12.0625,0.0,-1.875,-19.0625,0.986084,0.165527,0.016724,0.0,0.0,-0.01,0.0,-0.32,3.2,9.26,22
7.475076,-0.32,3.18,9.26,0.125,0.0625,0.0,1.875,78.5,-12.0625,0.0,-1.875,-19.0625,0.986084,0.165527,0.016724,0.0,0.0,-0.01,0.0,-0.32,3.2,9.26,22
7.486036,-0.32,3.2,9.25,0.125,-0.0625,0.0,2.5625,77.375,-12.0625,0.0,-1.875,-19.0625,0.986084,0.165527,0.016724,0.0,0.0,-0.01,0.02,-0.32,3.2,9.26,22
7.496997,-0.32,3.18,9.28,0.125,0.25,-0.0625,2.5625,77.375,-12.0625,0.0,-1.875,-19.0625,0.986084,0.165527,0.016724,0.0,0.0,0.0,0.01,-0.32,3.2,9.26,22
7.507957,-0.33,3.15,9.26,0.0,0.0625,-0.0625,2.5625,77.375,-12.0625,0.0,-1.875,-19.0625,0.986084,0.165527,0.016724,0.0,0.0,-0.04,0.0,-0.32,3.2,9.26,22
7.518918,-0.32,3.19,9.27,0.0,-0.125,0.125,2.5625,77.375,-12.0625,0.0,-1.875,-19.0625,0.986084,0.165527,0.016724,0.0,0.0,0.0,0.01,-0.32,3.2,9.26,22
7.529878,-0.32,3.19,9.28,-0.125,-0.25,-0.0625,1.0625,78.875,-10.875,0.0,-1.875,-19.0625,0.986084,0.165527,0.016724,0.0,0.0,0.0,0.02,-0.32,3.2,9.26,22
7.540839,-0.33,3.19,9.28,-0.125,0.0625,0.0,1.0625,78.875,-10.875,0.0,-1.875,-19.0625,0.986084,0.165527,0.016724,0.0,0.0,-0.02,0.03,-0.32,3.2,9.26,22
7.551799,-0.32,3.17,9.29,-0.25,0.0,0.0,1.0625,78.875,-10.875,0.0,-1.875,-19.0625,0.986084,0.165527,0.016724,0.0,0.0,0.0,0.0,-0.32,3.2,9.26,22
7.56276,-0.32,3.19,9.26,-0.0625,-0.25,0.125,1.0625,78.875,-10.875,0.0,-1.875,-19.0625,0.986084,0.165527,0.016724,0.0,0.0,0.0,0.0,-0.32,3.2,9.26,22
7.57372,-0.33,3.19,9.26,0.0625,0.0625,0.0,1.0625,78.875,-10.875,0.0,-1.875,-19.0625,0.986084,0.165527,0.016724,0.0,0.0,0.0,0.0,-0.32,3.2,9.26,22
7.584681,-0.33,3.19,9.27,-0.125,-0.0625,-0.0625,5.5625,77.75,-16.375,0.0,-1.875,-19.0625,0.986084,0.165527,0.016724,0.0,0.0,0.0,0.0,-0.32,3.2,9.26,22
7.595641,-0.31,3.19,9.26,-0.1875,-0.125,-0.1875,5.5625,77.75,-16.375,0.0,-1.875,-19.0625,0.986084,0.165527,0.016724,0.0,0.0,-0.01,0.0,-0.32,3.2,9.26,22
7.606602,-0.32,3.18,9.25,-0.25,0.25,-0.0625,5.5625,77.75,-16.375,0.0,-1.875,-19.0625,0.986084,0.165527,0.016724,0.0,0.01,-0.02,-0.01,-0.32,3.2,9.26,22
7.617562,-0.31,3.17,9.25,0.0,-0.0625,-0.0625,5.5625,77.75,-16.375,0.0,-1.875,-19.0625,0.986084,0.165527,0.016724,0.0,0.0,-0.01,0.0,-0.32,3.2,9.26,22
7.628523,-0.32,3.18,9.25,0.3125,0.4375,0.0,2.5625,78.0625,-10.875,0.0,-1.875,-19.0625,0.986084,0.165527,0.016724,0.0,0.0,0.0,0.04,-0.32,3.2,9.26,22
7.639483,-0.32,3.2,9.3,0.3125,0.375,0.0,2.5625,78.0625,-10.875,0.0,-1.875,-19.0625,0.986084,0.165527,0.016724,0.0,0.0,0.0,-0.02,-0.32,3.2,9.26,22
7.650444,-0.32,3.2,9.24,-0.125,0.0,-0.0625,2.5625,78.0625,-10.875,0.0,-1.875,-19.0625,0.986084,0.165527,0.016724,0.0,0.0,0.0,-0.01,-0.32,3.2,9.26,22
7.661405,-0.32,3.2,9.25,-0.3125,0.0625,-0.0625,2.5625,78.0625,-10.875,0.0,-1.875,-19.0625,0.986084,0.165527,0.016724,0.0,0.0,-0.01,0.02,-0.32,3.2,9.26,22
7.672365,-0.33,3.18,9.28,-0.125,0.0625,-0.0625,2.5625,78.0625,-10.875,0.0,-1.875,-19.0625,0.986084,0.165527,0.016724,0.0,0.0,0.0,0.0,-0.32,3.2,9.26,22
7.683326,-0.32,3.2,9.26,-0.0625,0.0,0.0,2.5625,79.25,-10.5625,0.0,-1.875,-19.0625,0.986084,0.165527,0.016724,0.0,0.0,0.01,0.01,-0.32,3.2,9.26,22
7.694286,-0.32,3.18,9.28,-0.125,-0.0625,0.0,2.5625,79.25,-10.5625,0.0,-1.875,-19.0625,0.986084,0.165527,0.016724,0.0,0.0,-0.01,0.02,-0.32,3.2,9.26,22
7.705247,-0.33,3.18,9.28,-0.25,0.125,-0.0625,2.5625,79.25,-10.5625,0.0,-1.875,-19.0625,0.986084,0.165527,0.016724,0.0,0.0,-0.01,0.0,-0.32,3.2,9.26,22
7.716207,-0.33,3.18,9.26,-0.125,-0.0625,-0.0625,2.5625,79.25,-10.5625,0.0,-1.875,-19.0625,0.986084,0.165527,0.016724,0.0,0.01,0.0,0.02,-0.32,3.2,9.26,22
7.727168,-0.31,3.2,9.28,0.0625,-0.0625,-0.125,2.5625,79.25,-10.5625,0.0,-1.875,-19.0625,0.986084,0.165527,0.016724,0.0,0.01,0.0,0.02,-0.32,3.2,9.26,22
7.738128,-0.33,3.18,9.25,0.0625,-0.0625,0.0625,1.875,78.0625,-11.6875,0.0,-1.875,-19.0625,0.986084,0.165527,0.016724,0.0,0.0,0.0,0.0,-0.32,3.2,9.26,22
7.749089,-0.32,3.19,9.25,0.0,0.0625,-0.1875,1.875,78.0625,-11.6875,0.0,-1.875,-19.0625,0.986084,0.165527,0.016724,0.0,0.0,-0.02,0.0,-0.32,3.2,9.26,22
7.760049,-0.32,3.17,9.25,0.0625,0.125,0.125,1.875,78.0625,-11.6875,0.0,-1.875,-19.0625,0.986084,0.165527,0.016724,0.0,0.0,0.0,0.01,-0.32,3.2,9.26,22
7.77101,-0.32,3.2,9.27,0.0,0.0,-0.125,1.875,78.0625,-11.6875,0.0,-1.875,-19.0625,0.986084,0.165527,0.016724,0.0,0.01,0.0,0.0,-0.32,3.2,9.26,22
7.78197,-0.3,3.19,9.26,-0.125,-0.0625,0.0,2.5625,79.5625,-11.6875,0.0,-1.875,-19.0625,0.986084,0.165527,0.016724,0.0,0.0,0.0,0.04,-0.32,3.2,9.26,22
7.792931,-0.33,3.19,9.3,-0.0625,-0.125,0.0,2.5625,79.5625,-11.6875,0.0,-1.875,-19.0625,0.986084,0.165527,0.016724,0.0,0.0,0.0,0.02,-0.32,3.2,9.26,22
7.803891,-0.32,3.2,9.28,-0.125,0.1875,0.0,2.5625,79.5625,-11.6875,0.0,-1.875,-19.0625,0.986084,0.165527,0.016724,0.0,0.0,0.01,-0.03,-0.32,3.2,9.26,22
7.814852,-0.32,3.21,9.22,0.0,-0.125,-0.0625,2.5625,79.5625,-11.6875,0.0,-1.875,-19.0625,0.986084,0.165527,0.016724,0.0,0.0,-0.02,0.03,-0.32,3.2,9.26,22
7.825812,-0.31,3.17,9.29,0.25,0.125,0.125,2.5625,79.5625,-11.6875,0.0,-1.875,-19.0625,0.986084,0.165527,0.016724,0.0,-0.01,-0.01,0.0,-0.32,3.2,9.26,22
7.836773,-0.33,3.18,9.26,-0.0625,0.25,0.0,1.875,78.0625,-10.5625,0.0,-1.875,-19.0625,0.986084,0.165527,0.016724,0.0,0.0,-0.03,0.02,-0.32,3.2,9.26,22
7.847733,-0.32,3.16,9.29,0.0,0.1875,0.0,1.875,78.0625,-10.5625,0.0,-1.875,-19.0625,0.986084,0.165527,0.016724,0.0,0.0,-0.01,0.0,-0.32,3.2,9.26,22
7.858694,-0.31,3.18,9.25,-0.0625,0.0625,-0.125,1.875,78.0625,-10.5625,0.0,-1.875,-19.0625,0.986084,0.165527,0.016724,0.0,0.0,0.0,0.0,-0.32,3.2,9.26,22
7.869654,-0.33,3.19,9.25,0.0625,0.0,-0.125,1.875,78.0625,-10.5625,0.0,-1.875,-19.0625,0.986084,0.165527,0.016724,0.0,0.0,-0.01,-0.02,-0.32,3.2,9.26,22
7.880615,-0.33,3.18,9.23,0.0,0.125,-0.0625,1.875,78.0625,-10.5625,0.0,-1.875,-19.0625,0.986084,0.165527,0.016724,0.0,0.0,0.0,0.02,-0.32,3.2,9.26,22
7.891575,-0.31,3.19,9.29,-0.0625,0.0,-0.0625,2.5625,78.875,-10.875,0.0,-1.875,-19.0625,0.986084,0.165527,0.016724,0.0,0.0,-0.02,0.02,-0.32,3.2,9.26,22
7.902536,-0.32,3.19,9.27,-0.125,0.125,-0.125,2.5625,78.875,-10.875,0.0,-1.875,-19.0625,0.986084,0.165527,0.016724,0.0,0.0,0.0,0.01,-0.32,3.2,9.26,22
7.913497,-0.32,3.18,9.25,-0.0625,-0.375,0.0,2.5625,78.875,-10.875,0.0,-1.875,-19.0625,0.986084,0.165527,0.016724,0.0,0.0,-0.02,0.0,-0.32,3.2,9.26,22
7.924457,-0.32,3.17,9.26,-0.0625,0.0625,-0.0625,2.5625,78.875,-10.875,0.0,-1.875,-19.0625,0.986084,0.165527,0.016724,0.0,-0.01,-0.02,0.0,-0.32,3.2,9.26,22
7.935418,-0.33,3.17,9.26,-0.0625,-0.0625,-0.125,3.0,78.5,-10.5625,0.0,-1.875,-19.0625,0.986084,0.165527,0.016724,0.0,0.0,-0.02,0.02,-0.32,3.2,9.26,22
7.946378,-0.32,3.17,9.28,-0.3125,-0.25,-0.0625,3.0,78.5,-10.5625,0.0,-1.875,-19.0625,0.986084,0.165527,0.016724,0.0,0.0,-0.02,0.0,-0.32,3.2,9.26,22
7.957339,-0.32,3.17,9.25,-0.25,-0.1875,-0.0625,3.0,78.5,-10.5625,0.0,-1.875,-19.0625,0.986084,0.165527,0.016724,0.0,0.0,-0.02,0.0,-0.32,3.2,9.26,22
7.968299,-0.32,3.17,9.25,-0.1875,0.125,-0.0625,3.0,78.5,-10.5625,0.0,-1.875,-19.0625,0.986084,0.165527,0.016724,0.0,0.0,0.0,-0.01,-0.32,3.2,9.26,22
7.97926,-0.31,3.19,9.25,-0.1875,-0.0625,0.0,3.0,78.5,-10.5625,0.0,-1.875,-19.0625,0.986084,0.165527,0.016724,0.0,0.0,-0.01,0.02,-0.32,3.2,9.26,22
7.99022,-0.31,3.18,9.28,0.0625,-0.0625,-0.0625,2.5625,78.5,-10.5625,0.0,-1.875,-19.0625,0.986084,0.165527,0.016724,0.0,0.0,-0.01,0.02,-0.32,3.2,9.26,22
8.001181,-0.32,3.18,9.28,0.125,0.1875,-0.0625,2.5625,78.5,-10.5625,0.0,-1.875,-19.0625,0.986084,0.165527,0.016724,0.0,0.0,-0.02,0.01,-0.32,3.2,9.26,22
8.012141,-0.32,3.17,9.27,0.0625,0.0625,-0.0625,2.5625,78.5,-10.5625,0.0,-1.875,-19.0625,0.986084,0.165527,0.016724,0.0,0.0,0.0,0.0,-0.32,3.2,9.26,22
8.023102,-0.32,3.19,9.25,-0.125,-0.25,0.0625,2.5625,78.5,-10.5625,0.0,-1.875,-19.0625,0.986084,0.165527,0.016724,0.0,0.0,0.01,0.02,-0.32,3.2,9.26,22
8.034062,-0.32,3.21,9.28,-0.125,-0.0625,0.0,2.5625,78.5,-10.5625,0.0,-1.875,-19.0625,0.986084,0.165527,0.016724,0.0,0.0,0.0,0.01,-0.32,3.2,9.26,22
8.045023,-0.31,3.2,9.27,-0.25,0.125,0.0625,1.0625,78.875,-12.0625,0.0,-1.875,-19.0625,0.986084,0.165527,0.016724,0.0,-0.01,0.0,0.0,-0.32,3.2,9.26,22
8.055983,-0.33,3.19,9.26,-0.0625,0.125,-0.125,1.0625,78.875,-12.0625,0.0,-1.875,-19.0625,0.986084,0.165527,0.016724,0.0,-0.01,-0.02,0.04,-0.32,3.2,9.26,22
8.066944,-0.33,3.17,9.3,-0.0625,-0.0625,0.0,1.0625,78.875,-12.0625,0.0,-1.875,-19.0625,0.986084,0.165527,0.016724,0.0,-0.01,0.0,0.0,-0.32,3.2,9.26,22
8.077904,-0.33,3.19,9.26,-0.125,0.0625,-0.125,1.0625,78.875,-12.0625,0.0,-1.875,-19.0625,0.986084,0.165527,0.016724,0.0,0.0,0.0,0.0,-0.32,3.2,9.26,22
8.088865,-0.32,3.19,9.26,0.125,0.1875,-0.0625,1.0625,78.875,-12.0625,0.0,-1.875,-19.0625,0.986084,0.165527,0.016724,0.0,0.0,-0.03,0.0,-0.32,3.2,9.26,22
8.099825,-0.32,3.16,9.25,0.0,-0.0625,0.0,1.5,78.5,-10.875,0.0,-1.875,-19.0625,0.986084,0.165527,0.016724,0.0,0.0,0.0,0.0,-0.32,3.2,9.26,22
8.110786,-0.32,3.19,9.26,-0.125,-0.125,-0.0625,1.5,78.5,-10.875,0.0,-1.875,-19.0625,0.986084,0.165527,0.016724,0.0,0.0,0.0,0.04,-0.32,3.2,9.26,22
8.121746,-0.32,3.19,9.31,0.0,-0.0625,-0.0625,1.5,78.5,-10.875,0.0,-1.875,-19.0625,0.986084,0.165527,0.016724,0.0,0.01,0.0,0.0,-0.32,3.2,9.26,22
8.132707,-0.31,3.2,9.25,0.0,-0.3125,-0.0625,1.5,78.5,-10.875,0.0,-1.875,-19.0625,0.986084,0.165527,0.016724,0.0,0.0,-0.01,0.0,-0.32,3.2,9.26,22
8.143667,-0.32,3.18,9.26,-0.125,-0.4375,0.0625,1.5,78.5,-10.875,0.0,-1.875,-19.0625,0.986084,0.165527,0.016724,0.0,0.0,-0.03,0.02,-0.32,3.2,9.26,22
8.154628,-0.33,3.16,9.29,-0.0625,0.125,-0.0625,3.75,79.25,-12.5,0.0,-1.875,-19.0625,0.986084,0.165527,0.016724,0.0,0.0,-0.01,0.02,-0.32,3.2,9.26,22
8.165589,-0.32,3.19,9.26,0.0625,-0.0625,-0.125,3.75,79.25,-12.5,0.0,-1.875,-19.0625,0.986084,0.165527,0.016724,0.0,0.0,0.0,0.0,-0.32,3.2,9.26,22
8.176549,-0.32,3.18,9.25,-0.125,0.3125,-0.125,3.75,79.25,-12.5,0.0,-1.875,-19.0625,0.986084,0.165527,0.016724,0.0,0.0,0.0,0.0,-0.32,3.2,9.26,22
8.18751,-0.32,3.2,9.25,-0.0625,0.3125,-0.0625,3.75,79.25,-12.5,0.0,-1.875,-19.0625,0.986084,0.165527,0.016724,0.0,0.0,-0.01,0.01,-0.32,3.2,9.26,22
8.19847,-0.32,3.18,9.27,0.0625,0.1875,0.0625,3.75,79.25,-12.5,0.0,-1.875,-19.0625,0.986084,0.165527,0.016724,0.0,0.0,-0.01,0.01,-0.32,3.2,9.26,22
8.209431,-0.32,3.19,9.25,-0.125,0.0,-0.0625,1.5,80.0,-11.25,0.0,-1.875,-19.0625,0.986084,0.165527,0.016724,0.0,0.0,0.0,0.01,-0.32,3.2,9.26,22
8.220391,-0.33,3.2,9.27,-0.1875,-0.25,-0.125,1.5,80.0,-11.25,0.0,-1.875,-19.0625,0.986084,0.165527,0.016724,0.0,0.0,0.0,0.0,-0.32,3.2,9.26,22
8.231352,-0.32,3.19,9.26,-0.125,-0.125,0.0625,1.5,80.0,-11.25,0.0,-1.875,-19.0625,0.986084,0.165527,0.016724,0.0,0.0,0.0,0.0,-0.32,3.2,9.26,22
8.242312,-0.32,3.19,9.25,0.0625,0.0,-0.1875,1.5,80.0,-11.25,0.0,-1.875,-19.0625,0.986084,0.165527,0.016724,0.0,0.0,0.0,0.02,-0.32,3.2,9.26,22
8.253273,-0.31,3.19,9.28,-0.0625,0.125,0.0,2.25,77.375,-11.6875,0.0,-1.875,-19.0625,0.986084,0.165527,0.016724,0.0,0.0,-0.01,-0.01,-0.32,3.2,9.26,22
8.264233,-0.32,3.18,9.24,-0.1875,0.0625,0.0,2.25,77.375,-11.6875,0.0,-1.875,-19.0625,0.986084,0.165527,0.016724,0.0,0.0,-0.01,0.0,-0.32,3.2,9.26,22
8.275194,-0.32,3.18,9.25,-0.0625,-0.0625,0.0625,2.25,77.375,-11.6875,0.0,-1.875,-19.0625,0.986084,0.165527,0.016724,0.0,0.0,-0.01,-0.02,-0.32,3.2,9.26,22
8.286154,-0.32,3.18,9.24,-0.0625,0.25,0.0,2.25,77.375,-11.6875,0.0,-1.875,-19.0625,0.986084,0.165527,0.016724,0.0,0.0,-0.01,0.0,-0.32,3.2,9.26,22
8.297115,-0.32,3.18,9.25,0.1875,0.125,0.0625,2.25,77.375,-11.6875,0.0,-1.875,-19.0625,0.986084,0.165527,0.016724,0.0,0.0,0.0,0.03,-0.32,3.2,9.26,22
8.308075,-0.32,3.19,9.29,0.125,-0.125,0.0625,2.25,78.5,-9.75,0.0,-1.875,-19.0625,0.986084,0.165527,0.016724,0.0,0.0,0.0,0.0,-0.32,3.2,9.26,22
8.319036,-0.32,3.2,9.26,0.25,-0.1875,0.125,2.25,78.5,-9.75,0.0,-1.875,-19.0625,0.986084,0.165527,0.016724,0.0,0.0,0.0,0.0,-0.32,3.2,9.26,22
8.329996,-0.33,3.19,9.25,-0.1875,-0.3125,-0.0625,2.25,78.5,-9.75,0.0,-1.875,-19.0625,0.986084,0.165527,0.016724,0.0,0.0,0.02,0.0,-0.32,3.2,9.26,22
8.340957,-0.32,3.22,9.26,0.0625,0.1875,-0.0625,2.25,78.5,-9.75,0.0,-1.875,-19.0625,0.986084,0.165527,0.016724,0.0,0.0,0.0,0.0,-0.32,3.2,9.26,22
8.351917,-0.32,3.2,9.25,0.1875,-0.125,0.125,4.0625,78.0625,-11.25,0.0,-1.875,-19.0625,0.986084,0.165527,0.016724,0.0,0.0,0.0,0.01,-0.32,3.2,9.26,22
8.362878,-0.33,3.2,9.27,0.0,0.125,0.0625,4.0625,78.0625,-11.25,0.0,-1.875,-19.0625,0.986084,0.165527,0.016724,0.0,0.0,0.0,0.03,-0.32,3.2,9.26,22
8.373838,-0.32,3.2,9.3,-0.1875,0.0,-0.0625,4.0625,78.0625,-11.25,0.0,-1.875,-19.0625,0.986084,0.165527,0.016724,0.0,0.0,0.0,0.0,-0.32,3.2,9.26,22
8.384799,-0.33,3.19,9.25,0.125,0.125,0.0,4.0625,78.0625,-11.25,0.0,-1.875,-19.0625,0.986084,0.165527,0.016724,0.0,-0.01,0.0,0.0,-0.32,3.2,9.26,22
8.395759,-0.33,3.19,9.26,0.0,0.0,0.0,4.0625,78.0625,-11.25,0.0,-1.875,-19.0625,0.986084,0.165527,0.016724,0.0,0.0,-0.02,0.01,-0.32,3.2,9.26,22
8.40672,-0.32,3.17,9.27,-0.0625,-0.125,0.0,4.0625,77.375,-16.375,0.0,-1.875,-19.0625,0.986084,0.165527,0.016724,0.0,0.0,0.0,0.01,-0.32,3.2,9.26,22
8.417681,-0.32,3.19,9.27,0.125,0.125,-0.0625,4.0625,77.375,-16.375,0.0,-1.875,-19.0625,0.986084,0.165527,0.016724,0.0,0.0,-0.01,0.0,-0.32,3.2,9.26,22
8.428641,-0.31,3.18,9.26,-0.0625,0.0625,-0.0625,4.0625,77.375,-16.375,0.0,-1.875,-19.0625,0.986084,0.165527,0.016724,0.0,0.0,-0.01,0.0,-0.32,3.2,9.26,22
8.439602,-0.32,3.18,9.25,0.125,0.0625,0.0,4.0625,77.375,-16.375,0.0,-1.875,-19.0625,0.986084,0.165527,0.016724,0.0,0.0,-0.01,0.0,-0.32,3.2,9.26,22
8.450562,-0.32,3.18,9.26,0.0625,0.1875,0.125,4.0625,77.375,-16.375,0.0,-1.875,-19.0625,0.986084,0.165527,0.016724,0.0,0.0,-0.02,0.02,-0.32,3.2,9.26,22
8.461523,-0.33,3.17,9.29,-0.1875,0.0,-0.0625,4.875,78.0625,-15.5625,0.0,-1.875,-19.0625,0.986084,0.165527,0.016724,0.0,-0.01,0.0,0.01,-0.32,3.2,9.26,22
8.472483,-0.33,3.19,9.27,0.0625,-0.125,0.125,4.875,78.0625,-15.5625,0.0,-1.875,-19.0625,0.986084,0.165527,0.016724,0.0,0.0,0.0,0.0,-0.32,3.2,9.26,22
8.483444,-0.31,3.19,9.25,0.0625,-0.0625,0.0625,4.875,78.0625,-15.5625,0.0,-1.875,-19.0625,0.986084,0.165527,0.016724,0.0,0.0,0.0,0.0,-0.32,3.2,9.26,22
8.494404,-0.32,3.2,9.25,0.0625,-0.1875,0.125,4.875,78.0625,-15.5625,0.0,-1.875,-19.0625,0.986084,0.165527,0.016724,0.0,0.0,-0.02,0.0,-0.32,3.2,9.26,22
8.505365,-0.31,3.17,9.26,0.25,-0.0625,-0.0625,4.875,78.0625,-15.5625,0.0,-1.875,-19.0625,0.986084,0.165527,0.016724,0.0,0.0,-0.01,0.0,-0.32,3.2,9.26,22
8.516325,-0.33,3.18,9.26,0.25,0.125,0.0625,4.875,77.375,-15.5625,0.0,-1.875,-19.0625,0.986084,0.165527,0.016724,0.0,0.0,0.0,0.0,-0.32,3.2,9.26,22
8.527286,-0.32,3.19,9.28,-0.0625,0.0625,-0.0625,4.875,77.375,-15.5625,0.0,-1.875,-19.0625,0.986084,0.165527,0.016724,0.0,0.0,0.0,0.02,-0.32,3.2,9.26,22
8.538246,-0.32,3.19,9.27,-0.3125,-0.0625,-0.0625,4.875,77.375,-15.5625,0.0,-1.875,-19.0625,0.986084,0.165527,0.016724,0.0,0.0,-0.02,0.0,-0.32,3.2,9.26,22
8.549207,-0.32,3.17,9.25,0.0625,-0.125,0.0,4.875,77.375,-15.5625,0.0,-1.875,-19.0625,0.986084,0.165527,0.016724,0.0,0.0,-0.02,0.0,-0.32,3.2,9.26,22
8.560167,-0.31,3.17,9.25,0.0,-0.0625,0.0625,4.875,77.375,-15.5625,0.0,-1.875,-19.0625,0.986084,0.165527,0.016724,0.0,0.0,-0.02,0.0,-0.32,3.2,9.26,22
8.571128,-0.32,3.21,9.27,0.0625,-0.125,0.0625,4.875,77.0625,-15.25,0.0,-1.875,-19.0625,0.986084,0.165527,0.016724,0.0,0.0,-0.01,-0.02,-0.32,3.2,9.26,22
8.582088,-0.32,3.18,9.24,0.0,-0.3125,-0.125,4.875,77.0625,-15.25,0.0,-1.875,-19.0625,0.986084,0.165527,0.016724,0.0,0.0,0.0,-0.01,-0.32,3.2,9.26,22
8.593049,-0.32,3.19,9.25,-0.0625,0.0,0.0,4.875,77.0625,-15.25,0.0,-1.875,-19.0625,0.986084,0.165527,0.016724,0.0,0.0,0.0,0.0,-0.32,3.2,9.26,22
8.604009,-0.32,3.19,9.26,0.1875,0.0625,0.125,4.875,77.0625,-15.25,0.0,-1.875,-19.0625,0.986084,0.165527,0.016724,0.0,0.0,-0.01,0.01,-0.32,3.2,9.26,22
8.61497,-0.32,3.18,9.27,-0.1875,-0.25,-0.0625,5.5625,77.75,-15.5625,0.0,-1.875,-19.0625,0.986084,0.165527,0.016724,0.0,0.0,-0.01,0.03,-0.32,3.2,9.26,22
8.62593,-0.32,3.18,9.3,-0.0625,-0.125,0.0625,5.5625,77.75,-15.5625,0.0,-1.875,-19.0625,0.986084,0.165527,0.016724,0.0,-0.01,0.0,0.01,-0.32,3.2,9.26,22
8.636891,-0.33,3.2,9.27,-0.125,-0.0625,0.0625,5.5625,77.75,-15.5625,0.0,-1.875,-19.0625,0.986084,0.165527,0.016724,0.0,-0.01,0.0,0.02,-0.32,3.2,9.26,22
8.647851,-0.33,3.2,9.28,0.1875,0.0625,0.0,5.5625,77.75,-15.5625,0.0,-1.875,-19.0625,0.986084,0.165527,0.016724,0.0,0.0,-0.01,0.0,-0.32,3.2,9.26,22
8.658812,-0.32,3.18,9.25,0.0,-0.0625,0.0625,5.5625,77.75,-15.5625,0.0,-1.875,-19.0625,0.986084,0.165527,0.016724,0.0,0.0,0.0,0.0,-0.32,3.2,9.26,22
8.669773,-0.31,3.2,9.26,0.0625,-0.125,0.0625,5.25,77.75,-14.75,0.0,-1.875,-19.0625,0.986084,0.165527,0.016724,0.0,0.0,-0.01,0.03,-0.32,3.2,9.26,22
8.680733,-0.32,3.18,9.29,-0.1875,-0.0625,0.0625,5.25,77.75,-14.75,0.0,-1.875,-19.0625,0.986084,0.165527,0.016724,0.0,0.0,-0.01,0.0,-0.32,3.2,9.26,22
8.691694,-0.32,3.18,9.25,0.1875,0.125,0.0,5.25,77.75,-14.75,0.0,-1.875,-19.0625,0.986084,0.165527,0.016724,0.0,0.0,-0.01,0.0,-0.32,3.2,9.26,22
8.702654,-0.32,3.18,9.25,-0.1875,-0.3125,-0.0625,5.25,77.75,-14.75,0.0,-1.875,-19.0625,0.986084,0.165527,0.016724,0.0,-0.01,-0.02,0.01,-0.32,3.2,9.26,22
8.713615,-0.33,3.17,9.27,-0.125,-0.125,0.125,5.25,77.75,-14.75,0.0,-1.875,-19.0625,0.986084,0.165527,0.016724,0.0,0.0,0.0,0.02,-0.32,3.2,9.26,22
8.724575,-0.32,3.2,9.28,0.25,0.25,-0.0625,4.5,78.0625,-11.25,0.0,-1.875,-19.0625,0.986084,0.165527,0.016724,0.0,0.0,-0.01,0.01,-0.32,3.2,9.26,22
8.735536,-0.32,3.2,9.26,0.0625,0.0625,0.0,4.5,78.0625,-11.25,0.0,-1.875,-19.0625,0.986084,0.165527,0.016724,0.0,0.0,0.0,0.0,-0.32,3.2,9.26,22
8.746496,-0.33,3.18,9.25,0.25,-0.0625,0.0625,4.5,78.0625,-11.25,0.0,-1.875,-19.0625,0.986084,0.165527,0.016724,0.0,0.0,0.0,0.0,-0.32,3.2,9.26,22
8.757457,-0.31,3.19,9.25,0.25,0.3125,0.0,4.5,78.0625,-11.25,0.0,-1.875,-19.0625,0.986084,0.165527,0.016724,0.0,0.0,0.01,0.02,-0.32,3.2,9.26,22
8.768417,-0.33,3.21,9.28,0.0,0.125,0.0625,3.0,78.875,-11.6875,0.0,-1.875,-19.0625,0.986084,0.165527,0.016724,0.0,0.0,-0.01,0.0,-0.32,3.2,9.26,22
8.779378,-0.32,3.18,9.25,-0.125,-0.0625,0.0625,3.0,78.875,-11.6875,0.0,-1.875,-19.0625,0.986084,0.165527,0.016724,0.0,0.0,0.0,0.0,-0.32,3.2,9.26,22
8.790338,-0.32,3.19,9.25,-0.0625,-0.0625,0.0625,3.0,78.875,-11.6875,0.0,-1.875,-19.0625,0.986084,0.165527,0.016724,0.0,0.0,-0.01,-0.01,-0.32,3.2,9.26,22
8.801299,-0.32,3.18,9.25,-0.1875,-0.4375,0.0,3.0,78.875,-11.6875,0.0,-1.875,-19.0625,0.986084,0.165527,0.016724,0.0,0.01,-0.03,0.0,-0.32,3.2,9.26,22
8.812259,-0.31,3.16,9.26,0.0625,0.3125,0.0,3.0,78.875,-11.6875,0.0,-1.875,-19.0625,0.986084,0.165527,0.016724,0.0,0.0,0.0,0.02,-0.32,3.2,9.26,22
8.82322,-0.32,3.19,9.28,-0.125,0.1875,0.0625,4.0625,77.0625,-16.75,0.0,-1.875,-19.0625,0.986084,0.165527,0.016724,0.0,0.0,0.0,0.02,-0.32,3.2,9.26,22
8.83418,-0.33,3.17,9.26,0.125,0.0,0.0,4.0625,77.0625,-16.75,0.0,-1.875,-19.0625,0.986084,0.165527,0.016724,0.0,0.0,-0.02,0.0,-0.32,3.2,9.26,22
8.845141,-0.33,3.18,9.26,-0.125,-0.1875,0.125,4.0625,77.0625,-16.75,0.0,-1.875,-19.0625,0.986084,0.165527,0.016724,0.0,0.0,0.0,0.03,-0.32,3.2,9.26,22
8.856101,-0.32,3.19,9.29,-0.0625,0.0625,0.0,4.0625,77.0625,-16.75,0.0,-1.875,-19.0625,0.986084,0.165527,0.016724,0.0,0.0,0.0,0.0,-0.32,3.2,9.26,22
8.867062,-0.33,3.19,9.26,0.125,0.1875,0.125,4.0625,77.0625,-16.75,0.0,-1.875,-19.0625,0.986084,0.165527,0.016724,0.0,0.0,0.0,0.0,-0.32,3.2,9.26,22
8.878022,-0.32,3.19,9.27,0.0625,-0.0625,0.0625,2.25,78.875,-10.875,0.0,-1.875,-19.0625,0.986084,0.165527,0.016724,0.0,0.0,-0.01,0.01,-0.32,3.2,9.26,22
8.888983,-0.33,3.18,9.27,0.0,-0.0625,0.0625,2.25,78.875,-10.875,0.0,-1.875,-19.0625,0.986084,0.165527,0.016724,0.0,0.0,0.0,0.0,-0.32,3.2,9.26,22
8.899943,-0.31,3.2,9.26,0.0625,0.125,0.1875,2.25,78.875,-10.875,0.0,-1.875,-19.0625,0.986084,0.165527,0.016724,0.0,0.0,0.0,0.0,-0.32,3.2,9.26,22
8.910904,-0.31,3.2,9.26,-0.0625,0.0625,0.0625,2.25,78.875,-10.875,0.0,-1.875,-19.0625,0.986084,0.165527,0.016724,0.0,0.0,0.0,0.03,-0.32,3.2,9.26,22
8.921865,-0.32,3.19,9.3,-0.1875,-0.0625,0.0625,2.5625,78.0625,-10.0625,0.0,-1.875,-19.0625,0.986084,0.165527,0.016724,0.0,0.0,0.0,0.02,-0.32,3.2,9.26,22
