t,acc_X,acc_Y,acc_Z,gyr_X,gyr_Y,gyr_Z,mag_X,mag_Y,mag_Z,eul_heading,eul_roll,eul_pitch,quat_w,quat_x,quat_y,quat_z,lia_X,lia_Y,lia_Z,grv_X,grv_Y,grv_Z,temp
0.0,-0.32,3.15,9.31,0.0625,-0.5625,0.3125,1.5,78.1875,-14.0625,0.0,-1.875,-18.8125,0.986389,0.163513,0.016602,0.0,0.0,0.0,0.04,-0.32,3.16,9.27,22
0.011014,-0.33,3.17,9.31,-0.0625,-0.375,0.1875,1.5,78.1875,-14.0625,0.0,-1.875,-18.8125,0.986389,0.163513,0.016602,0.0,0.0,0.01,0.04,-0.32,3.16,9.27,22
0.022028,-0.33,3.16,9.3,-0.125,-0.5,0.125,1.5,78.1875,-14.0625,0.0,-1.875,-18.8125,0.986389,0.163513,0.016602,0.0,-0.01,0.0,0.02,-0.32,3.16,9.27,22
0.033042,-0.32,3.17,9.31,-0.375,-0.5,0.25,1.5,78.1875,-12.875,0.0,-1.875,-18.8125,0.986389,0.163513,0.016602,0.0,0.0,0.0,0.04,-0.32,3.16,9.27,22
0.044056,-0.32,3.16,9.32,-0.1875,-0.375,0.1875,1.5,78.1875,-12.875,0.0,-1.875,-18.8125,0.986389,0.163513,0.016602,0.0,0.0,0.0,0.0,-0.32,3.16,9.27,22
0.05507,-0.31,3.16,9.27,-0.125,-0.1875,0.125,1.5,78.1875,-12.875,0.0,-1.875,-18.8125,0.986389,0.163513,0.016602,0.0,0.0,0.02,0.03,-0.32,3.16,9.27,22
0.066084,-0.32,3.18,9.31,-0.0625,-0.375,0.25,1.5,78.1875,-12.875,0.0,-1.875,-18.8125,0.986389,0.163513,0.016602,0.0,0.0,0.0,0.05,-0.32,3.16,9.27,22
0.077098,-0.32,3.16,9.33,0.0,-0.125,0.25,5.5625,76.6875,-16.0625,0.0,-1.875,-18.8125,0.986389,0.163513,0.016602,0.0,0.01,0.01,0.05,-0.32,3.16,9.27,22
0.088113,-0.3,3.17,9.32,-0.0625,-0.1875,0.25,5.5625,76.6875,-16.0625,0.0,-1.875,-18.8125,0.986389,0.163513,0.016602,0.0,-0.01,0.02,0.02,-0.32,3.16,9.27,22
0.099127,-0.33,3.18,9.29,0.0,-0.125,0.3125,5.5625,76.6875,-16.0625,0.0,-1.875,-18.8125,0.986389,0.163513,0.016602,0.0,0.0,0.01,0.03,-0.32,3.16,9.27,22
0.110141,-0.32,3.17,9.31,-0.25,-0.125,0.3125,5.5625,76.6875,-16.0625,0.0,-1.875,-18.8125,0.986389,0.163513,0.016602,0.0,0.0,0.02,0.02,-0.32,3.16,9.27,22
0.121155,-0.32,3.18,9.29,-0.0625,-0.375,0.375,5.5625,76.6875,-16.0625,0.0,-1.875,-18.8125,0.986389,0.163513,0.016602,0.0,-0.01,0.0,0.03,-0.32,3.16,9.27,22
0.132169,-0.33,3.16,9.31,-0.25,-0.25,0.1875,6.375,77.75,-15.5625,0.0,-1.875,-18.8125,0.986389,0.163513,0.016602,0.0,0.0,0.02,0.05,-0.32,3.16,9.27,22
0.143183,-0.33,3.16,9.29,-0.3125,-0.3125,0.25,6.375,77.75,-15.5625,0.0,-1.875,-18.8125,0.986389,0.163513,0.016602,0.0,0.0,0.0,0.02,-0.32,3.16,9.27,22
0.154197,-0.32,3.16,9.29,-0.125,-0.1875,0.3125,6.375,77.75,-15.5625,0.0,-1.875,-18.8125,0.986389,0.163513,0.016602,0.0,0.0,-0.01,0.03,-0.32,3.16,9.27,22
0.165211,-0.31,3.15,9.31,-0.1875,-0.375,0.25,6.375,77.75,-15.5625,0.0,-1.875,-18.8125,0.986389,0.163513,0.016602,0.0,0.0,0.01,0.05,-0.32,3.16,9.27,22
0.176225,-0.33,3.17,9.33,-0.3125,-0.0625,0.3125,6.375,77.75,-15.5625,0.0,-1.875,-18.8125,0.986389,0.163513,0.016602,0.0,0.0,0.01,0.05,-0.32,3.16,9.27,22
0.187239,-0.32,3.16,9.32,-0.25,-0.125,0.1875,5.5625,78.875,-15.25,0.0,-1.875,-18.8125,0.986389,0.163513,0.016602,0.0,0.0,0.01,0.03,-0.32,3.16,9.27,22
0.198253,-0.33,3.17,9.31,-0.125,-0.25,0.25,5.5625,78.875,-15.25,0.0,-1.875,-18.8125,0.986389,0.163513,0.016602,0.0,0.0,0.0,0.04,-0.32,3.16,9.27,22
0.209267,-0.32,3.16,9.31,-0.0625,-0.25,0.3125,5.5625,78.875,-15.25,0.0,-1.875,-18.8125,0.986389,0.163513,0.016602,0.0,0.0,0.02,0.04,-0.32,3.16,9.27,22
0.220281,-0.31,3.18,9.31,-0.0625,-0.125,0.125,5.5625,78.875,-15.25,0.0,-1.875,-18.8125,0.986389,0.163513,0.016602,0.0,0.0,0.0,0.04,-0.32,3.16,9.27,22
0.231295,-0.33,3.16,9.31,0.1875,0.0,0.1875,6.375,75.875,-14.875,0.0,-1.875,-18.8125,0.986389,0.163513,0.016602,0.0,0.0,0.0,0.03,-0.32,3.16,9.27,22
0.24231,-0.31,3.16,9.3,-0.0625,-0.3125,0.1875,6.375,75.875,-14.875,0.0,-1.875,-18.8125,0.986389,0.163513,0.016602,0.0,0.0,0.01,0.05,-0.32,3.16,9.27,22
0.253324,-0.32,3.17,9.32,-0.125,-0.1875,0.25,6.375,75.875,-14.875,0.0,-1.875,-18.8125,0.986389,0.163513,0.016602,0.0,0.0,0.0,0.01,-0.32,3.16,9.27,22
0.264338,-0.32,3.16,9.29,-0.125,-0.125,0.1875,6.375,75.875,-14.875,0.0,-1.875,-18.8125,0.986389,0.163513,0.016602,0.0,0.0,0.0,0.03,-0.32,3.16,9.27,22
0.275352,-0.32,3.16,9.3,-0.0625,-0.25,0.1875,6.375,75.875,-14.875,0.0,-1.875,-18.8125,0.986389,0.163513,0.016602,0.0,0.0,0.0,0.03,-0.32,3.16,9.27,22
0.286366,-0.32,3.16,9.3,-0.0625,0.0,0.125,6.375,77.375,-16.0625,0.0,-1.875,-18.8125,0.986389,0.163513,0.016602,0.0,0.0,0.02,0.03,-0.32,3.16,9.27,22
0.29738,-0.32,3.18,9.31,0.0625,-0.1875,0.1875,6.375,77.375,-16.0625,0.0,-1.875,-18.8125,0.986389,0.163513,0.016602,0.0,0.0,0.01,0.03,-0.32,3.16,9.27,22
0.308394,-0.31,3.17,9.3,0.0,-0.1875,0.1875,6.375,77.375,-16.0625,0.0,-1.875,-18.8125,0.986389,0.163513,0.016602,0.0,0.0,0.02,0.01,-0.32,3.16,9.27,22
0.319408,-0.33,3.18,9.28,-0.3125,-0.1875,0.1875,6.375,77.375,-16.0625,0.0,-1.875,-18.8125,0.986389,0.163513,0.016602,0.0,0.0,0.01,0.0,-0.32,3.16,9.27,22
0.330422,-0.32,3.17,9.27,0.0,-0.4375,0.25,6.375,77.375,-16.0625,0.0,-1.875,-18.8125,0.986389,0.163513,0.016602,0.0,0.0,0.0,0.02,-0.32,3.16,9.27,22
0.341436,-0.31,3.16,9.3,0.0,-0.25,0.3125,4.5,77.375,-16.0625,0.0,-1.875,-18.8125,0.986389,0.163513,0.016602,0.0,0.0,0.0,0.01,-0.32,3.16,9.27,22
0.35245,-0.32,3.17,9.32,0.0,-0.0625,0.25,4.5,77.375,-16.0625,0.0,-1.875,-18.8125,0.986389,0.163513,0.016602,0.0,0.0,0.01,0.04,-0.32,3.16,9.27,22
0.363464,-0.32,3.16,9.3,-0.125,-0.125,0.3125,4.5,77.375,-16.0625,0.0,-1.875,-18.8125,0.986389,0.163513,0.016602,0.0,0.0,0.02,0.03,-0.32,3.16,9.27,22
0.374478,-0.33,3.18,9.3,-0.3125,-0.1875,0.375,4.5,77.375,-16.0625,0.0,-1.875,-18.8125,0.986389,0.163513,0.016602,0.0,0.0,0.01,0.04,-0.32,3.16,9.27,22
0.385492,-0.32,3.17,9.32,-0.3125,-0.4375,0.125,4.5,77.375,-16.0625,0.0,-1.875,-18.8125,0.986389,0.163513,0.016602,0.0,0.0,0.01,0.04,-0.32,3.16,9.27,22
0.396507,-0.32,3.18,9.29,-0.25,-0.1875,0.25,3.75,77.75,-15.25,0.0,-1.875,-18.8125,0.986389,0.163513,0.016602,0.0,0.0,0.0,0.03,-0.32,3.16,9.27,22
0.407521,-0.32,3.15,9.3,-0.3125,-0.3125,0.1875,3.75,77.75,-15.25,0.0,-1.875,-18.8125,0.986389,0.163513,0.016602,0.0,0.0,0.0,0.04,-0.32,3.16,9.27,22
0.418535,-0.32,3.16,9.31,-0.1875,-0.5,0.1875,3.75,77.75,-15.25,0.0,-1.875,-18.8125,0.986389,0.163513,0.016602,0.0,0.0,0.02,0.01,-0.32,3.16,9.27,22
0.429549,-0.32,3.18,9.29,-0.25,-0.3125,0.1875,3.75,77.75,-15.25,0.0,-1.875,-18.8125,0.986389,0.163513,0.016602,0.0,0.0,0.0,0.03,-0.32,3.16,9.27,22
0.440563,-0.33,3.16,9.3,-0.0625,-0.5,0.25,5.5625,78.1875,-15.6875,0.0,-1.875,-18.8125,0.986389,0.163513,0.016602,0.0,0.0,0.01,0.03,-0.32,3.16,9.27,22
0.451577,-0.33,3.17,9.31,-0.25,-0.25,0.0625,5.5625,78.1875,-15.6875,0.0,-1.875,-18.8125,0.986389,0.163513,0.016602,0.0,0.0,0.02,0.02,-0.32,3.16,9.27,22
0.462591,-0.32,3.18,9.29,-0.25,-0.25,0.125,5.5625,78.1875,-15.6875,0.0,-1.875,-18.8125,0.986389,0.163513,0.016602,0.0,0.0,0.01,0.0,-0.32,3.16,9.27,22
0.473605,-0.32,3.17,9.28,-0.0625,-0.0625,0.25,5.5625,78.1875,-15.6875,0.0,-1.875,-18.8125,0.986389,0.163513,0.016602,0.0,0.0,0.01,0.03,-0.32,3.16,9.27,22
0.484619,-0.32,3.17,9.3,0.0625,-0.25,0.25,5.5625,78.1875,-15.6875,0.0,-1.875,-18.8125,0.986389,0.163513,0.016602,0.0,0.0,0.0,0.02,-0.32,3.16,9.27,22
0.495633,-0.32,3.16,9.29,0.25,-0.125,0.1875,6.375,77.375,-15.25,0.0,-1.875,-18.8125,0.986389,0.163513,0.016602,0.0,0.0,0.0,0.04,-0.32,3.16,9.27,22
0.506647,-0.33,3.15,9.29,-0.1875,-0.25,0.3125,6.375,77.375,-15.25,0.0,-1.875,-18.8125,0.986389,0.163513,0.016602,0.0,0.0,0.0,0.02,-0.32,3.16,9.27,22
0.517661,-0.31,3.17,9.31,-0.125,-0.3125,0.125,6.375,77.375,-15.25,0.0,-1.875,-18.8125,0.986389,0.163513,0.016602,0.0,0.0,0.0,0.03,-0.32,3.16,9.27,22
0.528675,-0.32,3.16,9.3,-0.125,-0.3125,0.1875,6.375,77.375,-15.25,0.0,-1.875,-18.8125,0.986389,0.163513,0.016602,0.0,0.0,0.02,0.05,-0.32,3.16,9.27,22
0.539689,-0.33,3.18,9.33,-0.0625,-0.125,0.3125,3.375,78.875,-10.875,0.0,-1.875,-18.8125,0.986389,0.163513,0.016602,0.0,0.0,0.01,0.03,-0.32,3.16,9.27,22
0.550704,-0.33,3.17,9.31,0.0,0.1875,0.1875,3.375,78.875,-10.875,0.0,-1.875,-18.8125,0.986389,0.163513,0.016602,0.0,0.0,0.01,0.04,-0.32,3.16,9.27,22
0.561718,-0.32,3.17,9.32,-0.0625,0.0625,0.1875,3.375,78.875,-10.875,0.0,-1.875,-18.8125,0.986389,0.163513,0.016602,0.0,0.0,0.01,0.0,-0.32,3.16,9.27,22
0.572732,-0.32,3.17,9.27,-0.1875,-0.4375,0.25,3.375,78.875,-10.875,0.0,-1.875,-18.8125,0.986389,0.163513,0.016602,0.0,0.0,-0.01,0.04,-0.32,3.16,9.27,22
0.583746,-0.31,3.15,9.32,-0.125,-0.125,0.25,3.375,78.875,-10.875,0.0,-1.875,-18.8125,0.986389,0.163513,0.016602,0.0,0.0,0.01,0.07,-0.32,3.16,9.27,22
0.59476,-0.31,3.17,9.35,-0.25,-0.1875,0.125,1.875,78.875,-10.875,0.0,-1.875,-18.8125,0.986389,0.163513,0.016602,0.0,0.0,0.03,0.02,-0.32,3.16,9.27,22
0.605774,-0.33,3.16,9.32,-0.375,-0.4375,0.1875,1.875,78.875,-10.875,0.0,-1.875,-18.8125,0.986389,0.163513,0.016602,0.0,-0.01,0.0,0.04,-0.32,3.16,9.27,22
0.616788,-0.31,3.17,9.29,-0.125,-0.3125,0.25,1.875,78.875,-10.875,0.0,-1.875,-18.8125,0.986389,0.163513,0.016602,0.0,0.0,0.02,0.03,-0.32,3.16,9.27,22
0.627802,-0.31,3.18,9.3,-0.3125,-0.25,0.3125,1.875,78.875,-10.875,0.0,-1.875,-18.8125,0.986389,0.163513,0.016602,0.0,0.0,0.01,0.05,-0.32,3.16,9.27,22
0.638816,-0.32,3.17,9.33,-0.25,-0.4375,0.3125,1.875,78.875,-10.875,0.0,-1.875,-18.8125,0.986389,0.163513,0.016602,0.0,0.0,0.01,0.05,-0.32,3.16,9.27,22
0.64983,-0.31,3.16,9.29,-0.25,-0.25,0.0625,4.0625,78.5625,-15.6875,0.0,-1.875,-18.8125,0.986389,0.163513,0.016602,0.0,0.0,0.0,0.03,-0.32,3.16,9.27,22
0.660844,-0.32,3.16,9.31,-0.25,-0.6875,0.1875,4.0625,78.5625,-15.6875,0.0,-1.8125,-18.8125,0.986389,0.163513,0.016541,0.0,-0.01,0.01,0.02,-0.31,3.16,9.27,22
0.671858,-0.33,3.17,9.3,0.0,-0.375,0.25,4.0625,78.5625,-15.6875,0.0,-1.8125,-18.8125,0.986389,0.163513,0.016541,0.0,0.0,0.02,0.03,-0.31,3.16,9.27,22
0.682872,-0.31,3.18,9.31,0.0625,-0.3125,0.3125,4.0625,78.5625,-15.6875,0.0,-1.8125,-18.8125,0.986389,0.163513,0.016541,0.0,0.0,0.0,0.03,-0.31,3.16,9.27,22
0.693886,-0.32,3.16,9.31,-0.125,-0.1875,0.25,5.25,77.0625,-15.6875,0.0,-1.8125,-18.8125,0.986389,0.163513,0.016541,0.0,0.0,0.02,0.02,-0.31,3.16,9.27,22
0.704901,-0.32,3.18,9.29,-0.125,-0.1875,0.25,5.25,77.0625,-15.6875,0.0,-1.8125,-18.8125,0.986389,0.163513,0.016541,0.0,-0.01,0.01,0.02,-0.31,3.16,9.27,22
0.715915,-0.33,3.17,9.3,-0.125,-0.5,0.125,5.25,77.0625,-15.6875,0.0,-1.8125,-18.8125,0.986389,0.163513,0.016541,0.0,0.0,0.0,0.02,-0.31,3.16,9.27,22
0.726929,-0.32,3.16,9.3,-0.0625,-0.25,0.125,5.25,77.0625,-15.6875,0.0,-1.8125,-18.8125,0.986389,0.163513,0.016541,0.0,0.0,0.01,0.03,-0.31,3.16,9.27,22
0.737943,-0.32,3.17,9.3,-0.1875,-0.5,0.3125,5.25,77.0625,-15.6875,0.0,-1.8125,-18.8125,0.986389,0.163513,0.016541,0.0,0.0,0.0,0.06,-0.31,3.16,9.27,22
0.748957,-0.32,3.16,9.33,-0.125,-0.4375,0.1875,5.5625,77.75,-15.6875,0.0,-1.8125,-18.8125,0.986389,0.163513,0.016541,0.0,0.0,0.01,0.02,-0.31,3.16,9.27,22
0.759971,-0.32,3.17,9.29,-0.0625,-0.25,0.25,5.5625,77.75,-15.6875,0.0,-1.8125,-18.8125,0.986389,0.163513,0.016541,0.0,0.0,0.0,0.04,-0.31,3.16,9.27,22
0.770985,-0.32,3.15,9.32,-0.125,-0.375,0.1875,5.5625,77.75,-15.6875,0.0,-1.8125,-18.8125,0.986389,0.163513,0.016541,0.0,0.0,0.02,0.03,-0.31,3.16,9.27,22
0.781999,-0.32,3.18,9.31,-0.25,-0.4375,0.1875,5.5625,77.75,-15.6875,0.0,-1.8125,-18.8125,0.986389,0.163513,0.016541,0.0,0.0,0.0,0.04,-0.31,3.16,9.27,22
0.793013,-0.32,3.16,9.31,-0.125,-0.0625,0.375,5.5625,77.75,-15.6875,0.0,-1.8125,-18.8125,0.986389,0.163513,0.016541,0.0,0.0,0.0,0.02,-0.31,3.16,9.27,22
0.804027,-0.31,3.16,9.3,0.0,-0.4375,0.125,4.5,76.6875,-15.6875,0.0,-1.8125,-18.8125,0.986389,0.163513,0.016541,0.0,0.0,0.02,0.04,-0.31,3.16,9.27,22
0.815041,-0.32,3.18,9.32,0.125,-0.3125,0.3125,4.5,76.6875,-15.6875,0.0,-1.8125,-18.8125,0.986389,0.163513,0.016541,0.0,0.0,0.0,0.03,-0.31,3.16,9.27,22
0.826055,-0.32,3.16,9.3,-0.1875,-0.3125,0.25,4.5,76.6875,-15.6875,0.0,-1.8125,-18.8125,0.986389,0.163513,0.016541,0.0,0.0,-0.01,0.05,-0.31,3.16,9.27,22
0.837069,-0.32,3.14,9.33,-0.1875,-0.5,0.25,4.5,76.6875,-15.6875,0.0,-1.8125,-18.8125,0.986389,0.163513,0.016541,0.0,0.0,0.01,0.01,-0.31,3.16,9.27,22
0.848083,-0.32,3.17,9.29,-0.125,-0.4375,0.25,4.5,76.6875,-15.6875,0.0,-1.8125,-18.8125,0.986389,0.163513,0.016541,0.0,0.0,0.01,0.02,-0.31,3.16,9.27,22
0.859097,-0.32,3.17,9.29,-0.0625,-0.4375,0.3125,5.25,78.5625,-15.25,0.0,-1.8125,-18.8125,0.986389,0.163513,0.016541,0.0,-0.01,0.03,0.04,-0.31,3.16,9.27,22
0.870112,-0.33,3.19,9.32,-0.125,-0.3125,0.1875,5.25,78.5625,-15.25,0.0,-1.8125,-18.8125,0.986389,0.163513,0.016541,0.0,0.0,0.0,0.04,-0.31,3.16,9.27,22
0.881126,-0.31,3.16,9.32,0.1875,-0.375,0.3125,5.25,78.5625,-15.25,0.0,-1.8125,-18.8125,0.986389,0.163513,0.016541,0.0,-0.01,0.0,0.01,-0.31,3.16,9.27,22
0.89214,-0.33,3.16,9.29,-0.0625,-0.4375,0.3125,5.25,78.5625,-15.25,0.0,-1.8125,-18.8125,0.986389,0.163513,0.016541,0.0,-0.01,0.01,0.03,-0.31,3.16,9.27,22
0.903154,-0.33,3.17,9.3,0.0,0.125,0.1875,5.25,78.5625,-15.25,0.0,-1.8125,-18.8125,0.986389,0.163513,0.016541,0.0,0.0,-0.02,0.03,-0.31,3.16,9.27,22
0.914168,-0.31,3.14,9.3,-0.125,-0.25,0.125,3.75,77.75,-15.25,0.0,-1.8125,-18.8125,0.986389,0.163513,0.016541,0.0,0.0,0.0,0.04,-0.31,3.16,9.27,22
0.925182,-0.32,3.16,9.31,-0.375,-0.3125,0.1875,3.75,77.75,-15.25,0.0,-1.8125,-18.8125,0.986389,0.163513,0.016541,0.0,0.0,0.0,0.01,-0.31,3.16,9.27,22
0.936196,-0.32,3.16,9.28,-0.125,-0.1875,0.1875,3.75,77.75,-15.25,0.0,-1.8125,-18.8125,0.986389,0.163513,0.016541,0.0,0.0,0.0,0.02,-0.31,3.16,9.27,22
0.94721,-0.32,3.16,9.29,-0.1875,-0.5,0.25,3.75,77.75,-15.25,0.0,-1.8125,-18.8125,0.986389,0.163513,0.016541,0.0,0.0,0.0,0.02,-0.31,3.16,9.27,22
0.958224,-0.32,3.16,9.31,-0.0625,-0.1875,0.125,3.75,77.75,-15.25,0.0,-1.8125,-18.8125,0.986389,0.163513,0.016541,0.0,0.0,0.0,0.04,-0.31,3.16,9.27,22
0.969238,-0.32,3.16,9.31,-0.0625,-0.3125,0.25,6.0,77.0625,-14.5,0.0,-1.8125,-18.8125,0.986389,0.163513,0.016541,0.0,0.0,0.0,0.02,-0.31,3.16,9.27,22
0.980252,-0.31,3.16,9.3,-0.25,-0.25,0.125,6.0,77.0625,-14.5,0.0,-1.8125,-18.8125,0.986389,0.163513,0.016541,0.0,0.0,0.01,0.02,-0.31,3.16,9.27,22
0.991266,-0.32,3.17,9.29,-0.0625,-0.375,0.25,6.0,77.0625,-14.5,0.0,-1.8125,-18.8125,0.986389,0.163513,0.016541,0.0,-0.01,0.01,0.01,-0.31,3.16,9.27,22
1.00228,-0.33,3.17,9.28,-0.1875,-0.1875,0.125,6.0,77.0625,-14.5,0.0,-1.8125,-18.8125,0.986389,0.163513,0.016541,0.0,0.0,0.0,0.02,-0.31,3.16,9.27,22
1.013294,-0.31,3.16,9.29,-0.1875,0.0,0.25,6.0,77.0625,-14.5,0.0,-1.8125,-18.8125,0.986389,0.163513,0.016541,0.0,0.0,0.0,0.02,-0.31,3.16,9.27,22
1.024309,-0.33,3.18,9.31,-0.3125,-0.5625,0.25,1.875,79.6875,-11.375,0.0,-1.8125,-18.8125,0.986389,0.163513,0.016541,0.0,0.0,0.01,0.05,-0.31,3.16,9.27,22
1.035323,-0.32,3.17,9.32,-0.5,-0.375,0.1875,1.875,79.6875,-11.375,0.0,-1.8125,-18.8125,0.986389,0.163513,0.016541,0.0,0.0,0.0,0.05,-0.31,3.16,9.27,22
1.046337,-0.32,3.16,9.32,-0.1875,-0.3125,0.1875,1.875,79.6875,-11.375,0.0,-1.8125,-18.8125,0.986389,0.163513,0.016541,0.0,0.0,0.01,0.03,-0.31,3.16,9.27,22
1.057351,-0.32,3.17,9.31,-0.125,0.125,0.0625,1.875,79.6875,-11.375,0.0,-1.8125,-18.8125,0.986389,0.163513,0.016541,0.0,0.0,0.01,0.02,-0.31,3.16,9.27,22
1.068365,-0.32,3.17,9.29,-0.1875,-0.0625,0.25,1.5,78.875,-9.75,0.0,-1.8125,-18.8125,0.986389,0.163513,0.016541,0.0,0.0,0.0,0.03,-0.31,3.16,9.27,22
1.079379,-0.32,3.16,9.32,-0.125,-0.4375,0.25,1.5,78.875,-9.75,0.0,-1.8125,-18.8125,0.986389,0.163513,0.016541,0.0,0.0,0.0,0.04,-0.31,3.16,9.27,22
1.090393,-0.32,3.16,9.3,-0.25,-0.375,0.0625,1.5,78.875,-9.75,0.0,-1.8125,-18.8125,0.986389,0.163513,0.016541,0.0,0.0,0.0,0.03,-0.31,3.16,9.27,22
1.101407,-0.32,3.15,9.3,0.0,-0.1875,0.1875,1.5,78.875,-9.75,0.0,-1.8125,-18.8125,0.986389,0.163513,0.016541,0.0,0.0,0.01,0.01,-0.31,3.16,9.27,22
1.112421,-0.32,3.17,9.29,-0.125,-0.4375,0.3125,1.5,78.875,-9.75,0.0,-1.8125,-18.8125,0.986389,0.163513,0.016541,0.0,0.0,0.01,0.01,-0.31,3.16,9.27,22
1.123435,-0.31,3.17,9.31,-0.25,-0.375,0.3125,2.25,78.5625,-10.5625,0.0,-1.8125,-18.8125,0.986389,0.163513,0.016541,0.0,0.01,0.0,0.0,-0.31,3.16,9.27,22
1.134449,-0.3,3.16,9.27,-0.1875,-0.3125,0.1875,2.25,78.5625,-10.5625,0.0,-1.8125,-18.8125,0.986389,0.163513,0.016541,0.0,0.0,-0.01,-0.01,-0.31,3.16,9.27,22
1.145463,-0.32,3.15,9.25,-0.0625,-0.3125,0.25,2.25,78.5625,-10.5625,0.0,-1.8125,-18.8125,0.986389,0.163513,0.016541,0.0,0.0,0.0,0.0,-0.31,3.16,9.27,22
1.156477,-0.32,3.16,9.27,-0.125,-0.375,0.1875,2.25,78.5625,-10.5625,0.0,-1.8125,-18.8125,0.986389,0.163513,0.016541,0.0,-0.01,0.0,0.0,-0.31,3.16,9.27,22
1.167491,-0.33,3.16,9.27,-0.125,-0.1875,0.3125,3.375,77.375,-10.5625,0.0,-1.8125,-18.8125,0.986389,0.163513,0.016541,0.0,0.0,0.0,-0.01,-0.31,3.16,9.27,22
1.178506,-0.31,3.15,9.26,-0.0625,-0.25,0.1875,3.375,77.375,-10.5625,0.0,-1.8125,-18.8125,0.986389,0.163513,0.016541,0.0,0.0,0.0,0.0,-0.31,3.16,9.27,22
1.18952,-0.32,3.15,9.26,0.0,-0.5625,0.25,3.375,77.375,-10.5625,0.0,-1.8125,-18.8125,0.986389,0.163513,0.016541,0.0,-0.01,0.0,-0.01,-0.31,3.16,9.27,22
1.200534,-0.33,3.16,9.26,-0.1875,-0.4375,0.3125,3.375,77.375,-10.5625,0.0,-1.8125,-18.8125,0.986389,0.163513,0.016541,0.0,0.0,-0.01,-0.02,-0.31,3.16,9.27,22
1.211548,-0.32,3.14,9.25,-0.125,-0.3125,0.125,3.375,77.375,-10.5625,0.0,-1.8125,-18.8125,0.986389,0.163513,0.016541,0.0,0.0,-0.01,-0.02,-0.31,3.16,9.27,22
1.222562,-0.32,3.14,9.25,-0.3125,-0.25,0.25,5.25,77.0625,-16.0625,0.0,-1.8125,-18.8125,0.986389,0.163513,0.016541,0.0,-0.01,0.0,0.02,-0.31,3.16,9.27,22
1.233576,-0.31,3.15,9.26,0.0625,-0.0625,0.1875,5.25,77.0625,-16.0625,0.0,-1.8125,-18.8125,0.986389,0.163513,0.016541,0.0,0.0,-0.01,-0.01,-0.31,3.16,9.27,22
1.24459,-0.32,3.17,9.24,0.0625,-0.125,0.1875,5.25,77.0625,-16.0625,0.0,-1.8125,-18.8125,0.986389,0.163513,0.016541,0.0,0.0,0.0,-0.01,-0.31,3.16,9.27,22
1.255604,-0.31,3.16,9.26,-0.0625,0.0625,0.1875,5.25,77.0625,-16.0625,0.0,-1.8125,-18.8125,0.986389,0.163513,0.016541,0.0,0.0,0.0,-0.02,-0.31,3.16,9.27,22
1.266618,-0.32,3.16,9.25,-0.3125,-0.25,0.1875,5.25,77.0625,-16.0625,0.0,-1.8125,-18.8125,0.986389,0.163513,0.016541,0.0,0.0,0.0,-0.02,-0.31,3.16,9.27,22
1.277632,-0.32,3.16,9.26,-0.0625,0.0,0.3125,5.5625,77.375,-14.5,0.0,-1.8125,-18.8125,0.986389,0.163513,0.016541,0.0,0.0,0.0,0.0,-0.31,3.16,9.27,22
1.288646,-0.31,3.16,9.27,-0.1875,-0.3125,0.1875,5.5625,77.375,-14.5,0.0,-1.8125,-18.8125,0.986389,0.163513,0.016541,0.0,0.0,0.01,0.0,-0.31,3.16,9.27,22
1.29966,-0.32,3.17,9.27,-0.4375,-0.3125,0.25,5.5625,77.375,-14.5,0.0,-1.8125,-18.8125,0.986389,0.163513,0.016541,0.0,0.0,0.0,-0.02,-0.31,3.16,9.27,22
1.310674,-0.32,3.15,9.25,-0.125,-0.375,0.1875,5.5625,77.375,-14.5,0.0,-1.8125,-18.8125,0.986389,0.163513,0.016541,0.0,0.0,0.0,0.0,-0.31,3.16,9.27,22
1.321688,-0.32,3.16,9.26,0.0625,-0.0625,0.1875,6.0,77.75,-14.0625,0.0,-1.8125,-18.8125,0.986389,0.163513,0.016541,0.0,0.0,0.01,-0.01,-0.31,3.16,9.27,22
1.332703,-0.32,3.17,9.26,0.0625,-0.5,0.25,6.0,77.75,-14.0625,0.0,-1.8125,-18.8125,0.986389,0.163513,0.016541,0.0,0.0,-0.01,0.01,-0.31,3.16,9.27,22
1.343717,-0.32,3.14,9.29,-0.0625,-0.4375,0.1875,6.0,77.75,-14.0625,0.0,-1.8125,-18.8125,0.986389,0.163513,0.016541,0.0,-0.01,0.0,0.0,-0.31,3.16,9.27,22
1.354731,-0.31,3.16,9.25,-0.3125,-0.375,0.25,6.0,77.75,-14.0625,0.0,-1.8125,-18.8125,0.986389,0.163513,0.016541,0.0,0.0,0.0,-0.02,-0.31,3.16,9.27,22
1.365745,-0.33,3.13,9.27,-0.125,-0.125,0.125,6.0,77.75,-14.0625,0.0,-1.8125,-18.8125,0.986389,0.163513,0.016541,0.0,-0.01,-0.02,0.0,-0.31,3.16,9.27,22
1.376759,-0.32,3.15,9.28,-0.125,-0.3125,0.25,6.0,77.0625,-15.6875,0.0,-1.8125,-18.8125,0.986389,0.163513,0.016541,0.0,0.0,0.01,-0.01,-0.31,3.16,9.27,22
1.387773,-0.32,3.17,9.26,-0.1875,-0.375,0.25,6.0,77.0625,-15.6875,0.0,-1.8125,-18.8125,0.986389,0.163513,0.016541,0.0,0.0,-0.01,0.0,-0.31,3.16,9.27,22
1.398787,-0.32,3.15,9.27,-0.125,-0.3125,0.25,6.0,77.0625,-15.6875,0.0,-1.8125,-18.8125,0.986389,0.163513,0.016541,0.0,0.0,0.0,0.0,-0.31,3.16,9.27,22
1.409801,-0.32,3.16,9.27,-0.1875,-0.375,0.25,6.0,77.0625,-15.6875,0.0,-1.8125,-18.8125,0.986389,0.163513,0.016541,0.0,0.0,0.0,0.01,-0.31,3.16,9.27,22
1.420815,-0.32,3.15,9.29,-0.375,-0.5625,0.1875,6.0,77.0625,-15.6875,0.0,-1.8125,-18.8125,0.986389,0.163513,0.016541,0.0,0.0,0.0,0.01,-0.31,3.16,9.27,22
1.431829,-0.32,3.14,9.28,-0.125,-0.1875,0.125,6.0,78.5625,-15.6875,0.0,-1.8125,-18.8125,0.986389,0.163513,0.016541,0.0,0.0,0.0,-0.01,-0.31,3.16,9.27,22
1.442843,-0.32,3.16,9.25,-0.1875,-0.1875,0.25,6.0,78.5625,-15.6875,0.0,-1.8125,-18.8125,0.986389,0.163513,0.016541,0.0,0.0,0.0,0.0,-0.31,3.16,9.27,22
1.453857,-0.32,3.16,9.27,-0.0625,-0.4375,0.1875,6.0,78.5625,-15.6875,0.0,-1.8125,-18.8125,0.986389,0.163513,0.016541,0.0,0.0,0.0,0.0,-0.31,3.16,9.27,22
1.464871,-0.32,3.16,9.27,-0.0625,-0.125,0.1875,6.0,78.5625,-15.6875,0.0,-1.8125,-18.8125,0.986389,0.163513,0.016541,0.0,0.0,0.0,0.0,-0.31,3.16,9.27,22
1.475885,-0.31,3.15,9.28,0.0625,-0.5,0.125,1.875,79.6875,-10.5625,0.0,-1.8125,-18.8125,0.986389,0.163513,0.016541,0.0,-0.01,0.0,0.02,-0.31,3.16,9.27,22
1.4869,-0.33,3.16,9.29,-0.0625,-0.125,0.25,1.875,79.6875,-10.5625,0.0,-1.8125,-18.8125,0.986389,0.163513,0.016541,0.0,0.0,0.0,0.0,-0.31,3.16,9.27,22
1.497914,-0.32,3.16,9.27,-0.125,-0.125,0.3125,1.875,79.6875,-10.5625,0.0,-1.8125,-18.8125,0.986389,0.163513,0.016541,0.0,-0.01,-0.01,0.0,-0.31,3.16,9.27,22
1.508928,-0.33,3.15,9.26,-0.25,-0.3125,0.1875,1.875,79.6875,-10.5625,0.0,-1.8125,-18.8125,0.986389,0.163513,0.016541,0.0,0.0,0.01,0.0,-0.31,3.16,9.27,22
1.519942,-0.31,3.17,9.28,-0.125,-0.5,0.25,1.875,79.6875,-10.5625,0.0,-1.8125,-18.8125,0.986389,0.163513,0.016541,0.0,0.0,-0.01,0.0,-0.31,3.16,9.27,22
1.530956,-0.32,3.14,9.27,-0.125,-0.4375,0.125,1.875,79.25,-10.1875,0.0,-1.8125,-18.8125,0.986389,0.163513,0.016541,0.0,0.0,-0.01,0.0,-0.31,3.16,9.27,22
1.54197,-0.32,3.14,9.26,-0.125,-0.375,0.25,1.875,79.25,-10.1875,0.0,-1.8125,-18.8125,0.986389,0.163513,0.016541,0.0,0.0,-0.01,0.0,-0.31,3.16,9.27,22
1.552984,-0.33,3.16,9.27,-0.125,-0.25,0.3125,1.875,79.25,-10.1875,0.0,-1.8125,-18.8125,0.986389,0.163513,0.016541,0.0,0.0,0.0,0.0,-0.31,3.16,9.27,22
1.563998,-0.32,3.16,9.26,-0.25,-0.25,0.1875,1.875,79.25,-10.1875,0.0,-1.8125,-18.8125,0.986389,0.163513,0.016541,0.0,0.0,0.0,0.02,-0.31,3.16,9.27,22
1.575012,-0.32,3.16,9.29,-0.25,-0.25,0.25,1.875,79.25,-10.1875,0.0,-1.8125,-18.8125,0.986389,0.163513,0.016541,0.0,0.0,0.0,0.02,-0.31,3.16,9.27,22
1.586026,-0.31,3.15,9.28,-0.0625,-0.1875,0.1875,1.5,78.5625,-10.5625,0.0,-1.8125,-18.8125,0.986389,0.163513,0.016541,0.0,0.0,0.0,0.0,-0.31,3.16,9.27,22
1.59704,-0.32,3.16,9.27,-0.25,-0.125,0.125,1.5,78.5625,-10.5625,0.0,-1.8125,-18.8125,0.986389,0.163513,0.016541,0.0,0.0,0.01,-0.03,-0.31,3.16,9.27,22
1.608054,-0.32,3.17,9.24,-0.0625,-0.125,0.1875,1.5,78.5625,-10.5625,0.0,-1.8125,-18.8125,0.986389,0.163513,0.016541,0.0,-0.01,0.0,-0.01,-0.31,3.16,9.27,22
1.619068,-0.32,3.16,9.27,0.0,-0.3125,0.25,1.5,78.5625,-10.5625,0.0,-1.8125,-18.8125,0.986389,0.163513,0.016541,0.0,0.0,0.0,0.0,-0.31,3.16,9.27,22
1.630082,-0.32,3.16,9.27,0.0625,-0.25,0.1875,4.0625,78.5625,-11.375,0.0,-1.8125,-18.8125,0.986389,0.163513,0.016541,0.0,0.0,0.02,0.0,-0.31,3.16,9.27,22
1.641096,-0.32,3.18,9.27,-0.0625,-0.375,0.25,4.0625,78.5625,-11.375,0.0,-1.8125,-18.8125,0.986389,0.163513,0.016541,0.0,0.01,-0.02,0.0,-0.31,3.16,9.27,22
1.652111,-0.3,3.14,9.28,-0.25,-0.3125,0.0625,4.0625,78.5625,-11.375,0.0,-1.8125,-18.8125,0.986389,0.163513,0.016541,0.0,0.0,0.01,-0.02,-0.31,3.16,9.27,22
1.663125,-0.32,3.17,9.25,-0.0625,-0.1875,0.25,4.0625,78.5625,-11.375,0.0,-1.8125,-18.8125,0.986389,0.163513,0.016541,0.0,0.0,0.01,0.02,-0.31,3.16,9.27,22
1.674139,-0.31,3.17,9.29,-0.125,-0.25,0.25,4.0625,78.5625,-11.375,0.0,-1.8125,-18.8125,0.986389,0.163513,0.016541,0.0,0.0,0.01,0.02,-0.31,3.16,9.27,22
1.685153,-0.33,3.15,9.26,-0.3125,-0.4375,0.0625,0.75,78.5625,-11.75,0.0,-1.8125,-18.8125,0.986389,0.163513,0.016541,0.0,0.0,0.0,-0.02,-0.31,3.16,9.27,22
1.696167,-0.32,3.16,9.25,-0.25,-0.5,0.1875,0.75,78.5625,-11.75,0.0,-1.8125,-18.8125,0.986389,0.163513,0.016541,0.0,0.0,0.0,0.01,-0.31,3.16,9.27,22
1.707181,-0.32,3.16,9.28,-0.25,-0.25,0.125,0.75,78.5625,-11.75,0.0,-1.8125,-18.8125,0.986389,0.163513,0.016541,0.0,0.0,0.0,0.01,-0.31,3.16,9.27,22
1.718195,-0.31,3.16,9.28,0.125,0.125,0.125,0.75,78.5625,-11.75,0.0,-1.8125,-18.8125,0.986389,0.163513,0.016541,0.0,0.0,0.0,-0.01,-0.31,3.16,9.27,22
1.729209,-0.31,3.16,9.25,-0.0625,-0.0625,0.125,3.0,78.5625,-12.0625,0.0,-1.8125,-18.8125,0.986389,0.163513,0.016541,0.0,0.0,0.0,0.04,-0.31,3.16,9.27,22
1.740223,-0.33,3.15,9.28,-0.3125,-0.375,0.3125,3.0,78.5625,-12.0625,0.0,-1.8125,-18.8125,0.986389,0.163513,0.016541,0.0,-0.01,0.0,0.01,-0.31,3.16,9.27,22
1.751237,-0.31,3.16,9.26,-0.125,-0.125,0.1875,3.0,78.5625,-12.0625,0.0,-1.8125,-18.8125,0.986389,0.163513,0.016541,0.0,0.0,0.0,-0.03,-0.31,3.16,9.27,22
1.762251,-0.32,3.15,9.24,-0.125,-0.25,0.1875,3.0,78.5625,-12.0625,0.0,-1.8125,-18.8125,0.986389,0.163513,0.016541,0.0,0.0,0.0,0.01,-0.31,3.16,9.27,22
1.773265,-0.32,3.15,9.29,-0.1875,-0.0625,0.0625,4.0625,78.5625,-10.5625,0.0,-1.8125,-18.8125,0.986389,0.163513,0.016541,0.0,-0.01,0.0,0.01,-0.31,3.16,9.27,22
1.784279,-0.32,3.14,9.3,0.0625,-0.0625,0.125,4.0625,78.5625,-10.5625,0.0,-1.8125,-18.8125,0.986389,0.163513,0.016541,0.0,0.0,-0.01,0.03,-0.31,3.16,9.27,22
1.795293,-0.31,3.16,9.26,0.0,-0.375,0.1875,4.0625,78.5625,-10.5625,0.0,-1.8125,-18.8125,0.986389,0.163513,0.016541,0.0,0.0,0.02,0.0,-0.31,3.16,9.27,22
1.806308,-0.31,3.18,9.26,-0.25,-0.1875,0.25,4.0625,78.5625,-10.5625,0.0,-1.8125,-18.8125,0.986389,0.163513,0.016541,0.0,0.0,-0.02,-0.01,-0.31,3.16,9.27,22
1.817322,-0.31,3.13,9.25,-0.1875,-0.3125,0.1875,4.0625,78.5625,-10.5625,0.0,-1.8125,-18.8125,0.986389,0.163513,0.016541,0.0,0.0,-0.02,-0.01,-0.31,3.16,9.27,22
1.828336,-0.32,3.13,9.29,-0.0625,0.0,0.125,1.5,79.25,-10.1875,0.0,-1.8125,-18.8125,0.986389,0.163513,0.016541,0.0,-0.02,0.0,-0.01,-0.31,3.16,9.27,22
1.83935,-0.33,3.16,9.25,-0.125,-0.25,0.25,1.5,79.25,-10.1875,0.0,-1.8125,-18.8125,0.986389,0.163513,0.016541,0.0,0.0,0.0,-0.02,-0.31,3.16,9.27,22
1.850364,-0.32,3.16,9.25,-0.3125,-0.4375,0.1875,1.5,79.25,-10.1875,0.0,-1.8125,-18.8125,0.986389,0.163513,0.016541,0.0,-0.01,0.0,-0.01,-0.31,3.16,9.27,22
1.861378,-0.33,3.16,9.26,0.3125,-0.375,0.25,1.5,79.25,-10.1875,0.0,-1.8125,-18.8125,0.986389,0.163513,0.016541,0.0,0.0,0.0,0.01,-0.31,3.16,9.27,22
1.872392,-0.32,3.16,9.29,-0.1875,-0.5,0.3125,2.5625,78.5625,-10.5625,0.0,-1.8125,-18.8125,0.986389,0.163513,0.016541,0.0,0.0,-0.02,0.0,-0.31,3.16,9.27,22
1.883406,-0.32,3.15,9.27,-0.375,-0.25,0.125,2.5625,78.5625,-10.5625,0.0,-1.8125,-18.8125,0.986389,0.163513,0.016541,0.0,0.0,0.0,0.0,-0.31,3.16,9.27,22
1.89442,-0.32,3.18,9.26,-0.25,-0.125,0.375,2.5625,78.5625,-10.5625,0.0,-1.8125,-18.8125,0.986389,0.163513,0.016541,0.0,0.0,0.0,0.0,-0.31,3.16,9.27,22
1.905434,-0.32,3.16,9.27,0.0,-0.25,0.1875,2.5625,78.5625,-10.5625,0.0,-1.8125,-18.8125,0.986389,0.163513,0.016541,0.0,0.0,-0.01,0.01,-0.31,3.16,9.27,22
1.916448,-0.32,3.14,9.28,-0.1875,-0.0625,0.125,2.5625,78.5625,-10.5625,0.0,-1.8125,-18.8125,0.986389,0.163513,0.016541,0.0,0.0,-0.01,0.01,-0.31,3.16,9.27,22
1.927462,-0.32,3.16,9.27,-0.0625,-0.1875,0.125,2.5625,78.5625,-11.0,0.0,-1.8125,-18.8125,0.986389,0.163513,0.016541,0.0,0.0,0.0,-0.01,-0.31,3.16,9.27,23
1.938476,-0.32,3.16,9.26,0.1875,-0.25,0.125,2.5625,78.5625,-11.0,0.0,-1.8125,-18.8125,0.986389,0.163513,0.016541,0.0,-0.01,0.01,-0.01,-0.31,3.16,9.27,23
1.94949,-0.33,3.17,9.25,0.0,-0.25,0.25,2.5625,78.5625,-11.0,0.0,-1.8125,-18.8125,0.986389,0.163513,0.016541,0.0,0.0,0.01,-0.03,-0.31,3.16,9.27,23
1.960505,-0.32,3.17,9.24,-0.25,-0.25,0.25,2.5625,78.5625,-11.0,0.0,-1.8125,-18.8125,0.986389,0.163513,0.016541,0.0,0.0,-0.03,-0.02,-0.31,3.16,9.27,23
1.971519,-0.32,3.13,9.25,-0.0625,0.0,0.25,1.0625,78.1875,-12.1875,0.0,-1.8125,-18.8125,0.986389,0.163513,0.016541,0.0,0.0,0.0,0.0,-0.31,3.16,9.27,23
1.982533,-0.32,3.16,9.26,0.125,-0.0625,0.3125,1.0625,78.1875,-12.1875,0.0,-1.8125,-18.8125,0.986389,0.163513,0.016541,0.0,0.0,0.01,-0.01,-0.31,3.16,9.27,23
1.993547,-0.32,3.17,9.25,-0.25,-0.0625,0.1875,1.0625,78.1875,-12.1875,0.0,-1.8125,-18.8125,0.986389,0.163513,0.016541,0.0,0.0,0.0,-0.02,-0.31,3.16,9.27,23
2.004561,-0.32,3.15,9.25,-0.3125,-0.1875,0.1875,1.0625,78.1875,-12.1875,0.0,-1.8125,-18.8125,0.986389,0.163513,0.016541,0.0,0.0,0.0,0.0,-0.31,3.16,9.27,23
2.015575,-0.32,3.16,9.26,-0.0625,-0.1875,0.25,1.0625,78.1875,-12.1875,0.0,-1.8125,-18.8125,0.986389,0.163513,0.016541,0.0,0.0,0.0,0.01,-0.31,3.16,9.27,23
2.026589,-0.31,3.16,9.28,-0.0625,-0.25,0.25,4.5,78.1875,-14.875,0.0,-1.8125,-18.8125,0.986389,0.163513,0.016541,0.0,0.0,0.0,0.0,-0.31,3.16,9.27,23
2.037603,-0.33,3.16,9.3,-0.0625,-0.25,0.1875,4.5,78.1875,-14.875,0.0,-1.8125,-18.8125,0.986389,0.163513,0.016541,0.0,-0.01,0.0,0.02,-0.31,3.16,9.27,23
2.048617,-0.33,3.17,9.25,0.0,-0.25,0.25,4.5,78.1875,-14.875,0.0,-1.8125,-18.8125,0.986389,0.163513,0.016541,0.0,0.0,0.0,0.0,-0.31,3.16,9.27,23
2.059631,-0.32,3.16,9.26,-0.0625,-0.25,0.25,4.5,78.1875,-14.875,0.0,-1.8125,-18.8125,0.986389,0.163513,0.016541,0.0,0.0,-0.01,0.01,-0.31,3.16,9.27,23
2.070645,-0.31,3.15,9.28,-0.0625,-0.125,0.125,4.5,78.1875,-14.875,0.0,-1.8125,-18.8125,0.986389,0.163513,0.016541,0.0,0.0,-0.01,0.01,-0.31,3.16,9.27,23
2.081659,-0.32,3.16,9.28,-0.125,-0.1875,0.1875,3.75,78.5625,-10.5625,0.0,-1.8125,-18.8125,0.986389,0.163513,0.016541,0.0,0.0,0.0,0.01,-0.31,3.16,9.27,23
2.092673,-0.31,3.15,9.28,-0.1875,-0.25,0.25,3.75,78.5625,-10.5625,0.0,-1.8125,-18.8125,0.986389,0.163513,0.016541,0.0,0.0,0.0,0.04,-0.31,3.16,9.27,23
2.103687,-0.32,3.16,9.31,-0.1875,-0.1875,0.25,3.75,78.5625,-10.5625,0.0,-1.8125,-18.8125,0.986389,0.163513,0.016541,0.0,0.0,0.0,0.0,-0.31,3.16,9.27,23
2.114702,-0.31,3.16,9.26,-0.25,-0.3125,0.125,3.75,78.5625,-10.5625,0.0,-1.8125,-18.8125,0.986389,0.163513,0.016541,0.0,0.0,0.0,0.0,-0.31,3.16,9.27,23
2.125716,-0.32,3.16,9.26,0.0625,-0.375,0.375,1.0625,77.75,-11.375,0.0,-1.8125,-18.8125,0.986389,0.163513,0.016541,0.0,-0.01,0.0,-0.02,-0.31,3.16,9.27,23
2.13673,-0.33,3.16,9.25,-0.1875,-0.3125,0.25,1.0625,77.75,-11.375,0.0,-1.8125,-18.8125,0.986389,0.163513,0.016541,0.0,0.0,-0.01,0.0,-0.31,3.16,9.27,23
2.147744,-0.32,3.15,9.27,-0.125,-0.125,0.25,1.0625,77.75,-11.375,0.0,-1.8125,-18.8125,0.986389,0.163513,0.016541,0.0,0.0,-0.01,-0.01,-0.31,3.16,9.27,23
2.158758,-0.31,3.15,9.26,-0.125,-0.1875,0.3125,1.0625,77.75,-11.375,0.0,-1.8125,-18.8125,0.986389,0.163513,0.016541,0.0,0.0,0.02,-0.01,-0.31,3.16,9.27,23
2.169772,-0.31,3.14,9.27,0.0625,-0.1875,0.125,1.0625,77.75,-11.375,0.0,-1.8125,-18.8125,0.986389,0.163513,0.016541,0.0,0.0,-0.01,0.0,-0.31,3.16,9.27,23
2.180786,-0.32,3.15,9.32,-0.25,-0.3125,0.1875,1.0625,78.5625,-11.0,0.0,-1.8125,-18.8125,0.986389,0.163513,0.016541,0.0,0.0,0.0,0.04,-0.31,3.16,9.27,23
2.1918,-0.32,3.19,9.27,0.0,-0.4375,0.3125,1.0625,78.5625,-11.0,0.0,-1.8125,-18.8125,0.986389,0.163513,0.016541,0.0,0.0,0.0,0.0,-0.31,3.16,9.27,23
2.202814,-0.32,3.16,9.26,-0.375,-0.0625,0.3125,1.0625,78.5625,-11.0,0.0,-1.8125,-18.8125,0.986389,0.163513,0.016541,0.0,0.0,0.0,0.0,-0.31,3.16,9.27,23
2.213828,-0.32,3.16,9.26,-0.3125,-0.1875,0.1875,1.0625,78.5625,-11.0,0.0,-1.8125,-18.8125,0.986389,0.163513,0.016541,0.0,0.0,0.02,0.01,-0.31,3.16,9.27,23
2.224842,-0.31,3.18,9.28,-0.375,-0.3125,0.1875,1.0625,78.5625,-11.0,0.0,-1.8125,-18.8125,0.986389,0.163513,0.016541,0.0,0.0,0.02,0.01,-0.31,3.16,9.27,23
2.235856,-0.31,3.16,9.27,-0.125,-0.1875,0.1875,3.375,78.1875,-10.1875,0.0,-1.8125,-18.8125,0.986389,0.163513,0.016541,0.0,0.0,-0.02,0.01,-0.31,3.16,9.27,23
2.24687,-0.32,3.14,9.28,-0.3125,-0.125,0.1875,3.375,78.1875,-10.1875,0.0,-1.8125,-18.8125,0.986389,0.163513,0.016541,0.0,0.0,0.0,-0.02,-0.31,3.16,9.27,23
2.257884,-0.32,3.16,9.25,0.1875,-0.3125,0.25,3.375,78.1875,-10.1875,0.0,-1.8125,-18.8125,0.986389,0.163513,0.016541,0.0,-0.01,0.0,-0.01,-0.31,3.16,9.27,23
2.268899,-0.33,3.16,9.26,-0.125,-0.375,0.125,3.375,78.1875,-10.1875,0.0,-1.8125,-18.8125,0.986389,0.163513,0.016541,0.0,-0.01,0.0,-0.01,-0.31,3.16,9.27,23
2.279913,-0.33,3.16,9.26,-0.25,-0.3125,0.1875,1.5,77.75,-10.1875,0.0,-1.8125,-18.8125,0.986389,0.163513,0.016541,0.0,0.0,0.0,0.0,-0.31,3.16,9.27,23
2.290927,-0.32,3.16,9.26,-0.1875,-0.1875,0.25,1.5,77.75,-10.1875,0.0,-1.8125,-18.8125,0.986389,0.163513,0.016541,0.0,0.0,0.0,0.0,-0.31,3.16,9.27,23
2.301941,-0.32,3.18,9.25,-0.0625,-0.375,0.375,1.5,77.75,-10.1875,0.0,-1.8125,-18.8125,0.986389,0.163513,0.016541,0.0,0.0,0.0,0.05,-0.31,3.16,9.27,23
2.312955,-0.31,3.15,9.33,-0.125,-0.1875,0.25,1.5,77.75,-10.1875,0.0,-1.8125,-18.8125,0.986389,0.163513,0.016541,0.0,-0.01,0.02,0.01,-0.31,3.16,9.27,23
2.323969,-0.33,3.18,9.29,-0.1875,-0.125,0.375,1.5,77.75,-10.1875,0.0,-1.8125,-18.8125,0.986389,0.163513,0.016541,0.0,-0.01,0.02,0.01,-0.31,3.16,9.27,23
2.334983,-0.32,3.16,9.27,-0.1875,-0.375,0.0625,2.5625,78.5625,-11.375,0.0,-1.8125,-18.8125,0.986389,0.163513,0.016541,0.0,0.0,0.01,-0.01,-0.31,3.16,9.27,23
2.345997,-0.32,3.17,9.26,-0.125,-0.3125,0.125,2.5625,78.5625,-11.375,0.0,-1.8125,-18.8125,0.986389,0.163513,0.016541,0.0,0.0,0.02,-0.02,-0.31,3.16,9.27,23
2.357011,-0.32,3.19,9.25,-0.125,0.0,0.3125,2.5625,78.5625,-11.375,0.0,-1.8125,-18.8125,0.986389,0.163513,0.016541,0.0,0.0,-0.01,0.0,-0.31,3.16,9.27,23
2.368025,-0.31,3.14,9.27,-0.1875,-0.125,0.1875,2.5625,78.5625,-11.375,0.0,-1.8125,-18.8125,0.986389,0.163513,0.016541,0.0,0.0,0.0,-0.02,-0.31,3.16,9.27,23
2.379039,-0.31,3.15,9.25,-0.0625,-0.25,0.3125,5.5625,77.75,-14.875,0.0,-1.8125,-18.8125,0.986389,0.163513,0.016541,0.0,-0.01,-0.01,0.0,-0.31,3.16,9.27,23
2.390053,-0.32,3.16,9.29,-0.125,-0.1875,0.1875,5.5625,77.75,-14.875,0.0,-1.8125,-18.8125,0.986389,0.163513,0.016541,0.0,0.0,0.0,0.02,-0.31,3.16,9.27,23
2.401067,-0.33,3.15,9.26,0.0,-0.1875,0.1875,5.5625,77.75,-14.875,0.0,-1.8125,-18.8125,0.986389,0.163513,0.016541,0.0,-0.01,0.0,-0.01,-0.31,3.16,9.27,23
2.412081,-0.33,3.15,9.26,0.0,-0.3125,0.25,5.5625,77.75,-14.875,0.0,-1.8125,-18.8125,0.986389,0.163513,0.016541,0.0,-0.01,0.0,0.01,-0.31,3.16,9.27,23
2.423095,-0.33,3.16,9.28,-0.0625,0.0,0.1875,5.5625,77.75,-14.875,0.0,-1.8125,-18.8125,0.986389,0.163513,0.016541,0.0,-0.01,0.0,0.01,-0.31,3.16,9.27,23
2.43411,-0.32,3.18,9.27,0.0625,-0.1875,0.125,3.75,77.375,-15.6875,0.0,-1.8125,-18.8125,0.986389,0.163513,0.016541,0.0,-0.01,0.0,0.0,-0.31,3.16,9.27,23
2.445124,-0.33,3.16,9.27,-0.3125,-0.4375,0.1875,3.75,77.375,-15.6875,0.0,-1.8125,-18.8125,0.986389,0.163513,0.016541,0.0,-0.02,-0.01,0.01,-0.31,3.16,9.27,23
2.456138,-0.33,3.15,9.28,-0.0625,-0.25,0.1875,3.75,77.375,-15.6875,0.0,-1.8125,-18.8125,0.986389,0.163513,0.016541,0.0,0.0,-0.01,0.0,-0.31,3.16,9.27,23
2.467152,-0.32,3.15,9.27,0.0,-0.3125,0.1875,3.75,77.375,-15.6875,0.0,-1.8125,-18.8125,0.986389,0.163513,0.016541,0.0,-0.01,0.0,0.0,-0.31,3.16,9.27,23
2.478166,-0.33,3.16,9.27,-0.375,-0.375,0.1875,7.875,77.75,-14.875,0.0,-1.8125,-18.8125,0.986389,0.163513,0.016541,0.0,0.0,-0.01,0.0,-0.31,3.16,9.27,23
2.48918,-0.31,3.16,9.26,-0.125,-0.25,0.25,7.875,77.75,-14.875,0.0,-1.8125,-18.8125,0.986389,0.163513,0.016541,0.0,0.0,0.0,-0.01,-0.31,3.16,9.27,23
2.500194,-0.31,3.14,9.27,-0.25,-0.25,0.1875,7.875,77.75,-14.875,0.0,-1.8125,-18.8125,0.986389,0.163513,0.016541,0.0,-0.01,0.01,0.0,-0.31,3.16,9.27,23
2.511208,-0.33,3.17,9.28,-0.1875,-0.375,0.125,7.875,77.75,-14.875,0.0,-1.8125,-18.8125,0.986389,0.163513,0.016541,0.0,0.0,0.0,0.0,-0.31,3.16,9.27,23
2.522222,-0.32,3.16,9.27,0.0625,-0.4375,0.3125,7.875,77.75,-14.875,0.0,-1.8125,-18.8125,0.986389,0.163513,0.016541,0.0,0.0,0.0,0.0,-0.31,3.16,9.27,23
2.533236,-0.32,3.16,9.25,-0.3125,-0.6875,0.125,2.25,78.875,-11.0,0.0,-1.8125,-18.8125,0.986389,0.163513,0.016418,0.0,0.0,0.0,0.0,-0.31,3.16,9.27,23
2.54425,-0.32,3.15,9.27,-0.25,-0.3125,0.1875,2.25,78.875,-11.0,0.0,-1.8125,-18.8125,0.986389,0.163513,0.016418,0.0,0.0,0.0,-0.02,-0.31,3.16,9.27,23
2.555264,-0.31,3.16,9.25,-0.1875,-0.25,0.25,2.25,78.875,-11.0,0.0,-1.8125,-18.8125,0.986389,0.163513,0.016418,0.0,-0.01,-0.01,0.0,-0.31,3.16,9.27,23
2.566278,-0.32,3.16,9.26,-0.125,-0.0625,0.1875,2.25,78.875,-11.0,0.0,-1.8125,-18.8125,0.986389,0.163513,0.016418,0.0,0.0,0.0,0.0,-0.31,3.16,9.27,23
2.577292,-0.32,3.16,9.25,0.0,-0.1875,0.25,1.875,77.0625,-11.375,0.0,-1.8125,-18.8125,0.986389,0.163513,0.016418,0.0,0.0,0.0,-0.01,-0.31,3.16,9.27,23
2.588307,-0.32,3.14,9.25,0.125,-0.0625,0.1875,1.875,77.0625,-11.375,0.0,-1.8125,-18.8125,0.986389,0.163513,0.016418,0.0,-0.01,0.0,-0.01,-0.31,3.16,9.27,23
2.599321,-0.33,3.16,9.26,0.0625,-0.1875,0.125,1.875,77.0625,-11.375,0.0,-1.8125,-18.8125,0.986389,0.163513,0.016418,0.0,0.0,0.0,0.01,-0.31,3.16,9.27,23
2.610335,-0.32,3.15,9.28,0.125,-0.1875,0.25,1.875,77.0625,-11.375,0.0,-1.8125,-18.8125,0.986389,0.163513,0.016418,0.0,0.0,0.0,0.0,-0.31,3.16,9.27,23
2.621349,-0.32,3.16,9.28,0.125,-0.25,0.1875,1.875,77.0625,-11.375,0.0,-1.8125,-18.8125,0.986389,0.163513,0.016418,0.0,0.0,0.0,0.0,-0.31,3.16,9.27,23
2.632363,-0.32,3.17,9.28,0.0625,-0.1875,0.375,2.25,78.875,-12.1875,0.0,-1.8125,-18.8125,0.986389,0.163513,0.016418,0.0,0.0,0.01,0.0,-0.31,3.16,9.27,23
2.643377,-0.31,3.17,9.27,-0.25,-0.0625,0.3125,2.25,78.875,-12.1875,0.0,-1.8125,-18.8125,0.986389,0.163513,0.016418,0.0,0.0,-0.01,-0.03,-0.31,3.16,9.27,23
2.654391,-0.32,3.14,9.24,-0.25,0.0,0.125,2.25,78.875,-12.1875,0.0,-1.8125,-18.8125,0.986389,0.163513,0.016418,0.0,0.0,0.01,0.0,-0.31,3.16,9.27,23
2.665405,-0.31,3.17,9.28,-0.0625,-0.1875,0.3125,2.25,78.875,-12.1875,0.0,-1.8125,-18.8125,0.986389,0.163513,0.016418,0.0,0.0,0.0,-0.01,-0.31,3.16,9.27,23
2.676419,-0.32,3.15,9.26,0.0625,-0.4375,0.1875,6.0,78.5625,-12.1875,0.0,-1.8125,-18.8125,0.986389,0.163513,0.016418,0.0,0.0,0.0,-0.01,-0.31,3.16,9.27,23
2.687433,-0.32,3.16,9.26,-0.25,-0.4375,0.25,6.0,78.5625,-12.1875,0.0,-1.8125,-18.8125,0.986389,0.163513,0.016418,0.0,0.0,-0.01,-0.02,-0.31,3.16,9.27,23
2.698447,-0.32,3.15,9.25,0.0625,-0.125,0.1875,6.0,78.5625,-12.1875,0.0,-1.8125,-18.8125,0.986389,0.163513,0.016418,0.0,0.0,0.0,-0.01,-0.31,3.16,9.27,23
2.709461,-0.32,3.15,9.25,0.0625,-0.3125,0.25,6.0,78.5625,-12.1875,0.0,-1.8125,-18.8125,0.986389,0.163513,0.016418,0.0,0.0,0.01,0.0,-0.31,3.16,9.27,23
2.720475,-0.32,3.17,9.28,0.0625,0.0,0.0625,6.0,78.5625,-12.1875,0.0,-1.8125,-18.8125,0.986389,0.163513,0.016418,0.0,0.0,0.0,0.0,-0.31,3.16,9.27,23
2.731489,-0.32,3.16,9.27,0.0625,-0.0625,0.25,1.875,77.75,-10.1875,0.0,-1.8125,-18.8125,0.986389,0.163513,0.016418,0.0,-0.01,0.0,0.0,-0.31,3.16,9.27,23
2.742504,-0.33,3.16,9.27,-0.0625,-0.1875,0.125,1.875,77.75,-10.1875,0.0,-1.8125,-18.8125,0.986389,0.163513,0.016418,0.0,0.0,-0.01,0.01,-0.31,3.16,9.27,23
2.753518,-0.32,3.15,9.28,-0.1875,-0.25,0.1875,1.875,77.75,-10.1875,0.0,-1.8125,-18.8125,0.986389,0.163513,0.016418,0.0,0.0,0.0,-0.01,-0.31,3.16,9.27,23
2.764532,-0.32,3.16,9.26,-0.125,-0.125,0.25,1.875,77.75,-10.1875,0.0,-1.8125,-18.8125,0.986389,0.163513,0.016418,0.0,0.0,-0.01,-0.02,-0.31,3.16,9.27,23
2.775546,-0.32,3.15,9.25,-0.375,-0.3125,0.3125,1.875,77.75,-10.1875,0.0,-1.8125,-18.8125,0.986389,0.163513,0.016418,0.0,0.0,0.01,0.0,-0.31,3.16,9.27,23
2.78656,-0.32,3.17,9.26,-0.1875,-0.25,0.1875,2.5625,79.6875,-9.375,0.0,-1.8125,-18.8125,0.986389,0.163513,0.016418,0.0,-0.01,0.0,0.0,-0.31,3.16,9.27,23
2.797574,-0.32,3.15,9.29,-0.0625,-0.25,0.1875,2.5625,79.6875,-9.375,0.0,-1.8125,-18.8125,0.986389,0.163513,0.016418,0.0,0.0,-0.01,0.02,-0.31,3.16,9.27,23
2.808588,-0.31,3.14,9.27,-0.0625,-0.25,0.1875,2.5625,79.6875,-9.375,0.0,-1.8125,-18.8125,0.986389,0.163513,0.016418,0.0,0.0,-0.01,0.01,-0.31,3.16,9.27,23
2.819602,-0.32,3.14,9.29,0.0,-0.1875,0.25,2.5625,79.6875,-9.375,0.0,-1.8125,-18.8125,0.986389,0.163513,0.016418,0.0,-0.01,0.0,-0.01,-0.31,3.16,9.27,23
2.830616,-0.33,3.16,9.25,0.125,-0.125,0.1875,2.5625,79.6875,-9.375,0.0,-1.8125,-18.8125,0.986389,0.163513,0.016418,0.0,-0.01,0.0,-0.01,-0.31,3.16,9.27,23
2.84163,-0.32,3.16,9.32,-0.25,0.0,0.1875,3.0,79.6875,-11.375,0.0,-1.8125,-18.8125,0.986389,0.163513,0.016418,0.0,0.0,0.0,0.0,-0.31,3.16,9.27,23
2.852644,-0.32,3.16,9.28,-0.1875,-0.3125,0.3125,3.0,79.6875,-11.375,0.0,-1.8125,-18.8125,0.986389,0.163513,0.016418,0.0,0.0,0.0,-0.02,-0.31,3.16,9.27,23
2.863658,-0.32,3.16,9.25,-0.0625,0.0625,0.25,3.0,79.6875,-11.375,0.0,-1.8125,-18.8125,0.986389,0.163513,0.016418,0.0,0.0,0.0,-0.01,-0.31,3.16,9.27,23
2.874672,-0.31,3.15,9.25,-0.125,-0.1875,0.25,3.0,79.6875,-11.375,0.0,-1.8125,-18.8125,0.986389,0.163513,0.016418,0.0,0.0,0.0,0.02,-0.31,3.16,9.27,23
2.885686,-0.31,3.16,9.3,-0.25,-0.375,0.25,2.25,78.875,-10.5625,0.0,-1.8125,-18.8125,0.986389,0.163513,0.016418,0.0,0.0,0.0,0.03,-0.31,3.16,9.27,23
2.896701,-0.32,3.15,9.31,-0.125,-0.3125,0.1875,2.25,78.875,-10.5625,0.0,-1.8125,-18.8125,0.986389,0.163513,0.016418,0.0,0.0,0.0,0.0,-0.31,3.16,9.27,23
2.907715,-0.32,3.16,9.27,0.0625,-0.125,0.125,2.25,78.875,-10.5625,0.0,-1.8125,-18.8125,0.986389,0.163513,0.016418,0.0,0.0,0.0,-0.04,-0.31,3.16,9.27,23
2.918729,-0.32,3.15,9.23,-0.0625,-0.3125,0.25,2.25,78.875,-10.5625,0.0,-1.8125,-18.8125,0.986389,0.163513,0.016418,0.0,0.0,-0.01,0.0,-0.31,3.16,9.27,23
2.929743,-0.31,3.14,9.28,-0.0625,-0.4375,0.1875,2.25,78.875,-10.5625,0.0,-1.8125,-18.8125,0.986389,0.163513,0.016418,0.0,0.0,-0.01,-0.01,-0.31,3.16,9.27,23
2.940757,-0.32,3.15,9.26,-0.0625,-0.25,0.25,1.875,77.75,-10.1875,0.0,-1.8125,-18.8125,0.986389,0.163513,0.016418,0.0,0.0,-0.02,0.0,-0.31,3.16,9.27,23
2.951771,-0.32,3.14,9.27,-0.125,-0.375,0.0625,1.875,77.75,-10.1875,0.0,-1.8125,-18.8125,0.986389,0.163513,0.016418,0.0,0.0,-0.01,0.0,-0.31,3.16,9.27,23
2.962785,-0.32,3.15,9.27,0.0,-0.25,0.1875,1.875,77.75,-10.1875,0.0,-1.8125,-18.8125,0.986389,0.163513,0.016418,0.0,0.0,0.0,0.0,-0.31,3.16,9.27,23
2.973799,-0.32,3.15,9.27,-0.1875,-0.3125,0.25,1.875,77.75,-10.1875,0.0,-1.8125,-18.8125,0.986389,0.163513,0.016418,0.0,0.0,0.0,0.0,-0.31,3.16,9.27,23
2.984813,-0.32,3.16,9.27,-0.1875,-0.3125,0.25,1.875,77.75,-10.1875,0.0,-1.8125,-18.8125,0.986389,0.163513,0.016418,0.0,0.0,-0.02,0.01,-0.31,3.16,9.27,23
2.995827,-0.32,3.15,9.25,-0.25,-0.25,0.25,3.0,77.75,-10.1875,0.0,-1.8125,-18.8125,0.986389,0.163513,0.016418,0.0,0.0,-0.01,-0.02,-0.31,3.16,9.27,23
3.006841,-0.32,3.16,9.27,0.1875,0.0625,0.3125,3.0,77.75,-10.1875,0.0,-1.8125,-18.8125,0.986389,0.163513,0.016418,0.0,0.0,0.0,0.0,-0.31,3.16,9.27,23
3.017855,-0.32,3.15,9.27,-0.0625,-0.125,0.1875,3.0,77.75,-10.1875,0.0,-1.8125,-18.8125,0.986389,0.163513,0.016418,0.0,0.0,-0.01,-0.01,-0.31,3.16,9.27,23
3.028869,-0.32,3.15,9.26,-0.1875,-0.375,0.1875,3.0,77.75,-10.1875,0.0,-1.8125,-18.8125,0.986389,0.163513,0.016418,0.0,0.0,0.0,-0.01,-0.31,3.16,9.27,23
3.039883,-0.32,3.16,9.25,-0.0625,-0.375,0.1875,3.0,77.75,-10.1875,0.0,-1.8125,-18.8125,0.986389,0.163513,0.016418,0.0,0.0,0.0,-0.01,-0.31,3.16,9.27,23
3.050898,-0.33,3.15,9.27,0.125,-0.125,0.1875,1.5,78.5625,-10.5625,0.0,-1.8125,-18.8125,0.986389,0.163513,0.016418,0.0,-0.01,-0.01,0.02,-0.31,3.16,9.27,23
3.061912,-0.33,3.14,9.29,0.125,-0.5,0.1875,1.5,78.5625,-10.5625,0.0,-1.8125,-18.8125,0.986389,0.163513,0.016418,0.0,-0.02,0.0,-0.03,-0.31,3.16,9.27,23
3.072926,-0.33,3.16,9.24,0.0,-0.25,0.25,1.5,78.5625,-10.5625,0.0,-1.8125,-18.8125,0.986389,0.163513,0.016418,0.0,0.0,-0.02,-0.01,-0.31,3.16,9.27,23
3.08394,-0.32,3.14,9.26,0.0625,-0.1875,0.125,1.5,78.5625,-10.5625,0.0,-1.8125,-18.8125,0.986389,0.163513,0.016418,0.0,-0.01,0.0,0.0,-0.31,3.16,9.27,23
3.094954,-0.33,3.16,9.27,-0.125,-0.25,0.375,2.5625,78.875,-11.0,0.0,-1.8125,-18.8125,0.986389,0.163513,0.016418,0.0,0.0,-0.01,0.01,-0.31,3.16,9.27,23
3.105968,-0.33,3.16,9.28,-0.1875,-0.3125,0.25,2.5625,78.875,-11.0,0.0,-1.8125,-18.8125,0.986389,0.163513,0.016418,0.0,-0.01,0.0,0.01,-0.31,3.16,9.27,23
3.116982,-0.32,3.19,9.26,0.0,0.0,0.1875,2.5625,78.875,-11.0,0.0,-1.8125,-18.8125,0.986389,0.163513,0.016418,0.0,-0.01,-0.02,0.0,-0.31,3.16,9.27,23
3.127996,-0.33,3.14,9.26,0.0625,-0.1875,0.25,2.5625,78.875,-11.0,0.0,-1.8125,-18.8125,0.986389,0.163513,0.016418,0.0,0.0,0.03,0.0,-0.31,3.16,9.27,23
3.13901,-0.32,3.2,9.28,-0.0625,-0.1875,0.125,2.5625,78.875,-11.0,0.0,-1.8125,-18.8125,0.986389,0.163513,0.016418,0.0,0.0,0.03,0.0,-0.31,3.16,9.27,23
3.150024,-0.33,3.16,9.3,-0.1875,-0.1875,0.125,3.375,78.5625,-11.375,0.0,-1.8125,-18.8125,0.986389,0.163513,0.016418,0.0,0.0,0.01,0.0,-0.31,3.16,9.27,23
3.161038,-0.32,3.17,9.27,-0.125,0.125,0.125,3.375,78.5625,-11.375,0.0,-1.8125,-18.8125,0.986389,0.163513,0.016418,0.0,0.0,0.0,-0.03,-0.31,3.16,9.27,23
3.172052,-0.31,3.15,9.24,-0.125,-0.3125,0.25,3.375,78.5625,-11.375,0.0,-1.8125,-18.8125,0.986389,0.163513,0.016418,0.0,0.0,0.0,0.0,-0.31,3.16,9.27,23
3.183066,-0.32,3.15,9.26,0.0625,-0.1875,0.25,3.375,78.5625,-11.375,0.0,-1.8125,-18.8125,0.986389,0.163513,0.016418,0.0,-0.01,0.01,0.02,-0.31,3.16,9.27,23
3.19408,-0.33,3.17,9.3,0.125,-0.1875,0.1875,0.75,77.75,-10.5625,0.0,-1.8125,-18.8125,0.986389,0.163513,0.016418,0.0,-0.01,0.0,0.0,-0.31,3.16,9.27,23
3.205094,-0.33,3.16,9.27,-0.0625,-0.5,0.25,0.75,77.75,-10.5625,0.0,-1.8125,-18.8125,0.986389,0.163513,0.016418,0.0,-0.01,0.0,0.0,-0.31,3.16,9.27,23
3.216109,-0.32,3.16,9.25,0.0,-0.375,0.1875,0.75,77.75,-10.5625,0.0,-1.8125,-18.8125,0.986389,0.163513,0.016418,0.0,0.0,0.0,-0.01,-0.31,3.16,9.27,23
3.227123,-0.32,3.15,9.28,-0.0625,-0.25,0.25,0.75,77.75,-10.5625,0.0,-1.8125,-18.8125,0.986389,0.163513,0.016418,0.0,0.0,0.0,0.01,-0.31,3.16,9.27,23
3.238137,-0.32,3.16,9.29,0.25,-0.25,0.3125,0.75,77.75,-10.5625,0.0,-1.8125,-18.8125,0.986389,0.163513,0.016418,0.0,0.0,0.0,0.01,-0.31,3.16,9.27,23
3.249151,-0.31,3.15,9.28,-0.125,-0.3125,0.1875,1.5,78.5625,-14.5,0.0,-1.8125,-18.8125,0.986389,0.163513,0.016418,0.0,0.0,0.0,0.0,-0.31,3.16,9.27,23
3.260165,-0.31,3.16,9.26,-0.0625,-0.1875,0.375,1.5,78.5625,-14.5,0.0,-1.8125,-18.8125,0.986389,0.163513,0.016418,0.0,0.0,0.01,-0.01,-0.31,3.16,9.27,23
3.271179,-0.31,3.17,9.26,0.1875,-0.3125,0.1875,1.5,78.5625,-14.5,0.0,-1.8125,-18.8125,0.986389,0.163513,0.016418,0.0,0.0,0.0,0.0,-0.31,3.16,9.27,23
3.282193,-0.32,3.16,9.26,0.1875,-0.0625,0.1875,1.5,78.5625,-14.5,0.0,-1.8125,-18.8125,0.986389,0.163513,0.016418,0.0,-0.01,0.0,-0.02,-0.31,3.16,9.27,23
3.293207,-0.33,3.16,9.25,0.0625,-0.5625,0.25,3.375,78.1875,-10.1875,0.0,-1.8125,-18.8125,0.986389,0.163513,0.016418,0.0,0.0,-0.02,0.0,-0.31,3.16,9.27,23
3.304221,-0.31,3.14,9.3,-0.1875,-0.25,0.1875,3.375,78.1875,-10.1875,0.0,-1.8125,-18.8125,0.986389,0.163513,0.016418,0.0,0.0,-0.02,0.03,-0.31,3.16,9.27,23
3.315235,-0.32,3.16,9.28,-0.0625,-0.1875,0.0625,3.375,78.1875,-10.1875,0.0,-1.8125,-18.8125,0.986389,0.163513,0.016418,0.0,0.0,0.0,0.0,-0.31,3.16,9.27,23
3.326249,-0.32,3.15,9.27,0.0,-0.3125,0.1875,3.375,78.1875,-10.1875,0.0,-1.8125,-18.8125,0.986389,0.163513,0.016418,0.0,0.0,0.0,0.0,-0.31,3.16,9.27,23
3.337263,-0.32,3.16,9.27,-0.125,-0.375,0.25,3.375,78.1875,-10.1875,0.0,-1.8125,-18.8125,0.986389,0.163513,0.016418,0.0,0.0,0.0,0.0,-0.31,3.16,9.27,23
3.348277,-0.32,3.15,9.25,0.1875,-0.25,0.25,2.25,79.25,-11.0,0.0,-1.8125,-18.8125,0.986389,0.163513,0.016418,0.0,-0.01,-0.01,0.0,-0.31,3.16,9.27,23
3.359291,-0.33,3.15,9.26,-0.1875,-0.1875,0.3125,2.25,79.25,-11.0,0.0,-1.8125,-18.8125,0.986389,0.163513,0.016418,0.0,0.0,0.02,0.01,-0.31,3.16,9.27,23
3.370306,-0.31,3.18,9.28,-0.125,0.0,0.1875,2.25,79.25,-11.0,0.0,-1.8125,-18.8125,0.986389,0.163513,0.016418,0.0,0.0,-0.03,-0.01,-0.31,3.16,9.27,23
3.38132,-0.32,3.13,9.25,0.0625,0.0625,0.125,2.25,79.25,-11.0,0.0,-1.8125,-18.8125,0.986389,0.163513,0.016418,0.0,0.0,0.0,-0.01,-0.31,3.16,9.27,23
3.392334,-0.31,3.15,9.27,0.0,0.0,0.125,1.0625,77.75,-10.5625,0.0,-1.8125,-18.8125,0.986389,0.163513,0.016418,0.0,0.0,-0.01,0.0,-0.31,3.16,9.27,23
3.403348,-0.31,3.16,9.3,-0.0625,-0.1875,0.1875,1.0625,77.75,-10.5625,0.0,-1.8125,-18.8125,0.986389,0.163513,0.016418,0.0,0.0,0.0,0.02,-0.31,3.16,9.27,23
3.414362,-0.32,3.15,9.25,-0.0625,-0.375,0.1875,1.0625,77.75,-10.5625,0.0,-1.8125,-18.8125,0.986389,0.163513,0.016418,0.0,0.0,0.0,0.0,-0.31,3.16,9.27,23
3.425376,-0.32,3.16,9.26,-0.1875,-0.4375,0.1875,1.0625,77.75,-10.5625,0.0,-1.8125,-18.8125,0.986389,0.163513,0.016418,0.0,0.0,0.0,0.0,-0.31,3.16,9.27,23
3.43639,-0.32,3.16,9.26,-0.1875,-0.125,0.0625,1.0625,77.75,-10.5625,0.0,-1.8125,-18.8125,0.986389,0.163513,0.016418,0.0,0.0,0.0,0.0,-0.31,3.16,9.27,23
3.447404,-0.32,3.16,9.27,-0.125,-0.375,0.1875,1.5,78.875,-11.375,0.0,-1.8125,-18.8125,0.986389,0.163513,0.016418,0.0,0.0,0.01,0.01,-0.31,3.16,9.27,23
3.458418,-0.32,3.17,9.29,0.0,-0.25,0.25,1.5,78.875,-11.375,0.0,-1.8125,-18.8125,0.986389,0.163513,0.016418,0.0,-0.01,0.0,0.0,-0.31,3.16,9.27,23
3.469432,-0.33,3.16,9.26,0.0,0.0,0.1875,1.5,78.875,-11.375,0.0,-1.8125,-18.8125,0.986389,0.163513,0.016418,0.0,0.0,0.0,0.0,-0.31,3.16,9.27,23
3.480446,-0.31,3.16,9.27,-0.0625,-0.1875,0.25,1.5,78.875,-11.375,0.0,-1.8125,-18.8125,0.986389,0.163513,0.016418,0.0,-0.01,0.0,0.0,-0.31,3.16,9.27,23
3.49146,-0.33,3.16,9.28,0.125,-0.1875,0.3125,3.0,78.875,-10.5625,0.0,-1.8125,-18.8125,0.986389,0.163513,0.016418,0.0,0.0,-0.01,0.01,-0.31,3.16,9.27,23
3.502474,-0.32,3.13,9.25,0.0625,-0.25,0.3125,3.0,78.875,-10.5625,0.0,-1.8125,-18.8125,0.986389,0.163513,0.016418,0.0,0.0,-0.03,-0.01,-0.31,3.16,9.27,23
3.513488,-0.32,3.15,9.25,0.3125,0.0625,0.1875,3.0,78.875,-10.5625,0.0,-1.8125,-18.8125,0.986389,0.163513,0.016418,0.0,-0.01,0.0,-0.01,-0.31,3.16,9.27,23
3.524503,-0.33,3.16,9.25,0.1875,0.0625,0.1875,3.0,78.875,-10.5625,0.0,-1.8125,-18.8125,0.986389,0.163513,0.016418,0.0,0.0,0.01,0.01,-0.31,3.16,9.27,23
3.535517,-0.32,3.17,9.28,-0.1875,-0.4375,0.125,3.0,78.875,-10.5625,0.0,-1.8125,-18.8125,0.986389,0.163513,0.016418,0.0,0.0,0.01,0.01,-0.31,3.16,9.27,23
3.546531,-0.31,3.16,9.27,-0.0625,-0.3125,0.1875,6.0,78.1875,-15.25,0.0,-1.8125,-18.8125,0.986389,0.163513,0.016418,0.0,0.0,0.0,-0.01,-0.31,3.16,9.27,23
3.557545,-0.32,3.16,9.26,0.0,-0.25,0.125,6.0,78.1875,-15.25,0.0,-1.8125,-18.8125,0.986389,0.163513,0.016418,0.0,0.0,0.0,-0.02,-0.31,3.16,9.27,23
3.568559,-0.32,3.16,9.25,-0.125,-0.4375,0.375,6.0,78.1875,-15.25,0.0,-1.8125,-18.8125,0.986389,0.163513,0.016418,0.0,0.0,0.01,0.0,-0.31,3.16,9.27,23
3.579573,-0.32,3.17,9.28,-0.0625,-0.125,0.125,6.0,78.1875,-15.25,0.0,-1.8125,-18.8125,0.986389,0.163513,0.016418,0.0,0.0,0.0,0.03,-0.31,3.16,9.27,23
3.590587,-0.32,3.16,9.3,-0.0625,-0.25,0.3125,7.0625,76.0,-14.0625,0.0,-1.8125,-18.8125,0.986389,0.163513,0.016418,0.0,0.0,0.0,0.0,-0.31,3.16,9.27,23
3.601601,-0.32,3.17,9.29,0.25,-0.125,0.25,7.0625,76.0,-14.0625,0.0,-1.8125,-18.8125,0.986389,0.163513,0.016418,0.0,0.0,0.01,0.01,-0.31,3.16,9.27,23
3.612615,-0.32,3.15,9.23,-0.125,-0.125,0.1875,7.0625,76.0,-14.0625,0.0,-1.8125,-18.8125,0.986389,0.163513,0.016418,0.0,0.0,0.0,0.0,-0.31,3.16,9.27,23
3.623629,-0.31,3.16,9.27,-0.125,-0.4375,0.0625,7.0625,76.0,-14.0625,0.0,-1.8125,-18.8125,0.986389,0.163513,0.016418,0.0,-0.01,0.0,-0.02,-0.31,3.16,9.27,23
3.634643,-0.33,3.16,9.25,-0.1875,-0.3125,0.1875,7.0625,76.0,-14.0625,0.0,-1.8125,-18.8125,0.986389,0.163513,0.016418,0.0,-0.01,0.0,-0.02,-0.31,3.16,9.27,23
3.645657,-0.32,3.15,9.3,0.125,-0.125,0.3125,5.25,77.375,-15.6875,0.0,-1.8125,-18.8125,0.986389,0.163513,0.016418,0.0,0.0,0.01,0.0,-0.31,3.16,9.27,23
3.656671,-0.32,3.17,9.28,0.0625,-0.125,0.1875,5.25,77.375,-15.6875,0.0,-1.8125,-18.8125,0.986389,0.163513,0.016418,0.0,0.0,0.0,0.02,-0.31,3.16,9.27,23
3.667685,-0.32,3.16,9.3,-0.125,-0.4375,0.1875,5.25,77.375,-15.6875,0.0,-1.8125,-18.8125,0.986389,0.163513,0.016418,0.0,0.0,0.0,0.0,-0.31,3.16,9.27,23
3.6787,-0.32,3.16,9.27,-0.1875,-0.4375,0.25,5.25,77.375,-15.6875,0.0,-1.8125,-18.8125,0.986389,0.163513,0.016418,0.0,0.0,0.01,0.0,-0.31,3.16,9.27,23
3.689714,-0.32,3.17,9.28,-0.125,-0.375,0.25,6.75,77.0625,-14.5625,0.0,-1.8125,-18.8125,0.986389,0.163513,0.016418,0.0,0.0,0.01,-0.01,-0.31,3.16,9.27,23
3.700728,-0.31,3.16,9.27,-0.0625,-0.0625,0.1875,6.75,77.0625,-14.5625,0.0,-1.8125,-18.8125,0.986389,0.163513,0.016418,0.0,0.0,0.0,0.0,-0.31,3.16,9.27,23
3.711742,-0.32,3.17,9.27,-0.1875,-0.1875,0.25,6.75,77.0625,-14.5625,0.0,-1.8125,-18.8125,0.986389,0.163513,0.016418,0.0,0.0,0.0,0.01,-0.31,3.16,9.27,23
3.722756,-0.32,3.15,9.29,-0.1875,-0.375,0.25,6.75,77.0625,-14.5625,0.0,-1.8125,-18.8125,0.986389,0.163513,0.016418,0.0,0.0,0.0,0.0,-0.31,3.16,9.27,23
3.73377,-0.31,3.15,9.27,-0.125,-0.1875,0.125,6.75,77.0625,-14.5625,0.0,-1.8125,-18.8125,0.986389,0.163513,0.016418,0.0,0.0,0.0,0.0,-0.31,3.16,9.27,23
3.744784,-0.33,3.15,9.27,-0.25,-0.5,0.125,5.5625,77.0625,-11.75,0.0,-1.8125,-18.8125,0.986389,0.163513,0.016418,0.0,-0.01,0.0,-0.02,-0.31,3.16,9.27,23
3.755798,-0.33,3.15,9.25,-0.0625,-0.125,0.25,5.5625,77.0625,-11.75,0.0,-1.8125,-18.8125,0.986389,0.163513,0.016418,0.0,0.0,0.0,0.0,-0.31,3.16,9.27,23
3.766812,-0.31,3.15,9.27,-0.125,-0.3125,0.25,5.5625,77.0625,-11.75,0.0,-1.8125,-18.8125,0.986389,0.163513,0.016418,0.0,0.0,0.0,-0.01,-0.31,3.16,9.27,23
3.777826,-0.32,3.16,9.25,-0.0625,-0.125,0.3125,5.5625,77.0625,-11.75,0.0,-1.8125,-18.8125,0.986389,0.163513,0.016418,0.0,0.0,0.0,-0.01,-0.31,3.16,9.27,23
3.78884,-0.32,3.17,9.26,-0.1875,0.0625,0.1875,1.875,80.0625,-10.1875,0.0,-1.8125,-18.8125,0.986389,0.163513,0.016418,0.0,0.0,0.01,0.0,-0.31,3.16,9.27,23
3.799854,-0.33,3.14,9.29,-0.1875,-0.375,0.25,1.875,80.0625,-10.1875,0.0,-1.8125,-18.8125,0.986389,0.163513,0.016418,0.0,-0.01,-0.02,0.01,-0.31,3.16,9.27,23
3.810868,-0.32,3.15,9.26,-0.25,-0.1875,0.125,1.875,80.0625,-10.1875,0.0,-1.8125,-18.8125,0.986389,0.163513,0.016418,0.0,-0.01,-0.03,0.01,-0.31,3.16,9.27,23
3.821882,-0.33,3.12,9.28,-0.0625,-0.3125,0.1875,1.875,80.0625,-10.1875,0.0,-1.8125,-18.8125,0.986389,0.163513,0.016418,0.0,0.0,0.01,0.0,-0.31,3.16,9.27,23
3.832897,-0.32,3.17,9.27,0.0,-0.3125,0.25,1.875,80.0625,-10.1875,0.0,-1.8125,-18.8125,0.986389,0.163513,0.016418,0.0,0.0,0.01,0.0,-0.31,3.16,9.27,23
3.843911,-0.32,3.16,9.26,0.125,-0.1875,0.25,2.5625,78.5625,-12.1875,0.0,-1.8125,-18.8125,0.986389,0.163513,0.016418,0.0,-0.01,0.0,0.01,-0.31,3.16,9.27,23
3.854925,-0.33,3.16,9.28,0.0625,-0.3125,0.125,2.5625,78.5625,-12.1875,0.0,-1.8125,-18.8125,0.986389,0.163513,0.016418,0.0,-0.01,0.0,-0.02,-0.31,3.16,9.27,23
3.865939,-0.33,3.16,9.25,-0.25,-0.4375,0.3125,2.5625,78.5625,-12.1875,0.0,-1.8125,-18.8125,0.986389,0.163513,0.016418,0.0,0.0,0.0,0.0,-0.31,3.16,9.27,23
3.876953,-0.32,3.15,9.28,-0.125,-0.3125,0.25,2.5625,78.5625,-12.1875,0.0,-1.8125,-18.8125,0.986389,0.163513,0.016418,0.0,0.0,0.0,0.01,-0.31,3.16,9.27,23
3.887967,-0.32,3.16,9.29,0.125,-0.4375,0.375,5.5625,77.0625,-15.25,0.0,-1.8125,-18.8125,0.986389,0.163513,0.016418,0.0,0.01,0.0,0.0,-0.31,3.16,9.27,23
3.898981,-0.3,3.16,9.28,-0.1875,-0.375,0.1875,5.5625,77.0625,-15.25,0.0,-1.8125,-18.8125,0.986389,0.163513,0.016418,0.0,0.0,0.0,0.0,-0.31,3.16,9.27,23
3.909995,-0.31,3.16,9.28,-0.25,-0.3125,0.1875,5.5625,77.0625,-15.25,0.0,-1.8125,-18.8125,0.986389,0.163513,0.016418,0.0,0.0,0.02,0.0,-0.31,3.16,9.27,23
3.921009,-0.32,3.19,9.28,-0.3125,-0.5,0.25,5.5625,77.0625,-15.25,0.0,-1.8125,-18.8125,0.986389,0.163513,0.016418,0.0,-0.01,0.0,0.0,-0.31,3.16,9.27,23
3.932023,-0.33,3.16,9.26,0.0625,-0.4375,0.0625,5.5625,77.0625,-15.25,0.0,-1.8125,-18.8125,0.986389,0.163513,0.016418,0.0,-0.01,0.0,-0.01,-0.31,3.16,9.27,23
3.943037,-0.33,3.16,9.26,0.0625,-0.5,0.3125,2.25,80.0625,-9.375,0.0,-1.8125,-18.8125,0.986389,0.163513,0.016418,0.0,-0.02,0.0,0.0,-0.31,3.16,9.27,23
3.954051,-0.33,3.15,9.27,-0.1875,-0.5,0.1875,2.25,80.0625,-9.375,0.0,-1.8125,-18.8125,0.986389,0.163513,0.016418,0.0,0.0,0.0,0.0,-0.31,3.16,9.27,23
3.965065,-0.32,3.16,9.28,-0.375,-0.1875,0.1875,2.25,80.0625,-9.375,0.0,-1.8125,-18.8125,0.986389,0.163513,0.016418,0.0,0.0,-0.02,-0.01,-0.31,3.16,9.27,23
3.976079,-0.32,3.13,9.25,-0.25,-0.1875,0.3125,2.25,80.0625,-9.375,0.0,-1.8125,-18.8125,0.986389,0.163513,0.016418,0.0,0.0,0.0,0.0,-0.31,3.16,9.27,23
3.987093,-0.32,3.16,9.28,0.0,-0.1875,0.3125,2.25,80.0625,-9.375,0.0,-1.8125,-18.8125,0.986389,0.163513,0.016418,0.0,0.0,0.0,0.0,-0.31,3.16,9.27,23
3.998108,-0.32,3.16,9.27,-0.0625,-0.1875,0.1875,1.875,78.875,-10.1875,0.0,-1.8125,-18.8125,0.986389,0.163513,0.016418,0.0,0.0,0.0,0.0,-0.31,3.16,9.27,23
4.009122,-0.31,3.16,9.27,-0.125,-0.125,0.1875,1.875,78.875,-10.1875,0.0,-1.8125,-18.8125,0.986389,0.163513,0.016418,0.0,0.0,0.0,-0.01,-0.31,3.16,9.27,23
4.020136,-0.32,3.16,9.26,-0.25,-0.4375,0.1875,1.875,78.875,-10.1875,0.0,-1.8125,-18.8125,0.986389,0.163513,0.016418,0.0,0.0,0.0,-0.01,-0.31,3.16,9.27,23
4.03115,-0.32,3.16,9.25,-0.0625,-0.0625,0.25,1.875,78.875,-10.1875,0.0,-1.8125,-18.8125,0.986389,0.163513,0.016418,0.0,0.0,-0.02,-0.03,-0.31,3.16,9.27,23
4.042164,-0.32,3.14,9.24,-0.4375,-0.3125,0.0625,1.875,78.875,-10.1875,0.0,-1.8125,-18.8125,0.986389,0.163513,0.016418,0.0,0.0,0.0,0.01,-0.31,3.16,9.27,23
4.053178,-0.32,3.15,9.29,-0.3125,-0.25,0.125,3.0,78.875,-11.0,0.0,-1.8125,-18.8125,0.986389,0.163513,0.016418,0.0,-0.01,-0.02,-0.01,-0.31,3.16,9.27,23
4.064192,-0.32,3.16,9.25,-0.3125,-0.1875,0.1875,3.0,78.875,-11.0,0.0,-1.8125,-18.8125,0.986389,0.163513,0.016418,0.0,0.0,0.0,-0.01,-0.31,3.16,9.27,23
4.075206,-0.32,3.15,9.25,-0.0625,-0.0625,0.25,3.0,78.875,-11.0,0.0,-1.8125,-18.8125,0.986389,0.163513,0.016418,0.0,0.0,-0.02,0.0,-0.31,3.16,9.27,23
4.08622,-0.32,3.14,9.27,0.0,-0.3125,0.3125,3.0,78.875,-11.0,0.0,-1.8125,-18.8125,0.986389,0.163513,0.016418,0.0,0.0,0.0,-0.02,-0.31,3.16,9.27,23
4.097234,-0.31,3.16,9.25,0.0625,-0.125,0.1875,3.0,78.875,-11.0,0.0,-1.8125,-18.8125,0.986389,0.163513,0.016418,0.0,0.0,0.0,-0.02,-0.31,3.16,9.27,23
4.108248,-0.32,3.15,9.3,-0.1875,-0.3125,0.1875,1.0625,79.25,-9.75,0.0,-1.8125,-18.8125,0.986389,0.163513,0.016418,0.0,0.0,0.0,0.0,-0.31,3.16,9.27,23
4.119262,-0.31,3.16,9.26,-0.0625,-0.1875,0.125,1.0625,79.25,-9.75,0.0,-1.8125,-18.8125,0.986389,0.163513,0.016418,0.0,0.0,0.0,0.0,-0.31,3.16,9.27,23
4.130276,-0.31,3.16,9.27,-0.125,-0.125,0.25,1.0625,79.25,-9.75,0.0,-1.8125,-18.8125,0.986389,0.163513,0.016418,0.0,0.0,0.0,-0.01,-0.31,3.16,9.27,23
4.14129,-0.32,3.16,9.26,-0.125,-0.25,0.1875,1.0625,79.25,-9.75,0.0,-1.8125,-18.8125,0.986389,0.163513,0.016418,0.0,0.0,0.0,0.0,-0.31,3.16,9.27,23
4.152305,-0.31,3.15,9.27,-0.25,0.0,0.1875,1.5,78.1875,-11.375,0.0,-1.8125,-18.8125,0.986389,0.163513,0.016418,0.0,0.0,0.0,0.02,-0.31,3.16,9.27,23
4.163319,-0.31,3.16,9.3,0.0,-0.0625,0.25,1.5,78.1875,-11.375,0.0,-1.8125,-18.8125,0.986389,0.163513,0.016418,0.0,-0.01,0.0,0.0,-0.31,3.16,9.27,23
4.174333,-0.33,3.16,9.26,0.125,0.0,0.25,1.5,78.1875,-11.375,0.0,-1.8125,-18.8125,0.986389,0.163513,0.016418,0.0,0.0,0.0,0.0,-0.31,3.16,9.27,23
4.185347,-0.32,3.16,9.26,0.0625,-0.1875,0.25,1.5,78.1875,-11.375,0.0,-1.8125,-18.8125,0.986389,0.163513,0.016418,0.0,0.0,0.0,0.01,-0.31,3.16,9.27,23
4.196361,-0.32,3.16,9.28,-0.0625,-0.125,0.125,1.5,78.1875,-11.375,0.0,-1.8125,-18.8125,0.986389,0.163513,0.016418,0.0,0.0,0.0,0.0,-0.31,3.16,9.27,23
4.207375,-0.31,3.16,9.27,-0.125,-0.375,0.0625,2.5625,78.1875,-10.1875,0.0,-1.8125,-18.8125,0.986389,0.163513,0.016418,0.0,-0.01,-0.01,0.0,-0.31,3.16,9.27,23
4.218389,-0.33,3.15,9.27,-0.125,-0.5,0.25,2.5625,78.1875,-10.1875,0.0,-1.8125,-18.8125,0.986389,0.163513,0.016418,0.0,-0.01,0.0,0.0,-0.31,3.16,9.27,23
4.229403,-0.33,3.16,9.25,0.125,-0.375,0.1875,2.5625,78.1875,-10.1875,0.0,-1.8125,-18.8125,0.986389,0.163513,0.016418,0.0,-0.01,0.0,-0.01,-0.31,3.16,9.27,23
4.240417,-0.32,3.15,9.3,-0.1875,-0.125,0.125,2.5625,78.1875,-10.1875,0.0,-1.8125,-18.8125,0.986389,0.163513,0.016418,0.0,0.0,0.0,0.01,-0.31,3.16,9.27,23
4.251431,-0.31,3.15,9.28,-0.0625,-0.25,0.3125,2.5625,78.1875,-10.1875,0.0,-1.8125,-18.8125,0.986389,0.163513,0.016418,0.0,0.0,0.0,0.01,-0.31,3.16,9.27,23
4.262445,-0.32,3.15,9.27,-0.125,-0.375,0.1875,0.375,79.6875,-10.1875,0.0,-1.8125,-18.8125,0.986389,0.163513,0.016418,0.0,-0.02,0.0,0.01,-0.31,3.16,9.27,23
4.273459,-0.33,3.15,9.28,-0.1875,-0.3125,0.3125,0.375,79.6875,-10.1875,0.0,-1.8125,-18.8125,0.986389,0.163513,0.016418,0.0,0.0,0.0,-0.02,-0.31,3.16,9.27,23
4.284473,-0.31,3.16,9.25,0.0,-0.375,0.1875,0.375,79.6875,-10.1875,0.0,-1.8125,-18.8125,0.986389,0.163513,0.016418,0.0,0.01,0.02,-0.02,-0.31,3.16,9.27,23
4.295487,-0.3,3.18,9.25,-0.0625,-0.125,0.25,0.375,79.6875,-10.1875,0.0,-1.8125,-18.8125,0.986389,0.163513,0.016418,0.0,0.0,0.0,0.01,-0.31,3.16,9.27,23
4.306502,-0.32,3.15,9.29,-0.1875,0.0,0.1875,1.0625,78.5625,-10.5625,0.0,-1.8125,-18.8125,0.986389,0.163513,0.016418,0.0,0.0,-0.01,0.0,-0.31,3.16,9.27,23
4.317516,-0.31,3.15,9.27,-0.3125,-0.375,0.1875,1.0625,78.5625,-10.5625,0.0,-1.8125,-18.8125,0.986389,0.163513,0.016418,0.0,-0.01,0.0,0.02,-0.31,3.16,9.27,23
4.32853,-0.33,3.15,9.29,-0.1875,-0.3125,0.25,1.0625,78.5625,-10.5625,0.0,-1.8125,-18.8125,0.986389,0.163513,0.016418,0.0,0.0,0.0,-0.01,-0.31,3.16,9.27,23
4.339544,-0.32,3.15,9.26,-0.25,-0.375,0.125,1.0625,78.5625,-10.5625,0.0,-1.8125,-18.8125,0.986389,0.163513,0.016418,0.0,0.0,-0.01,-0.01,-0.31,3.16,9.27,23
4.350558,-0.32,3.14,9.26,0.0,-0.125,0.3125,1.0625,78.5625,-10.5625,0.0,-1.8125,-18.8125,0.986389,0.163513,0.016418,0.0,0.0,-0.01,0.0,-0.31,3.16,9.27,23
4.361572,-0.32,3.15,9.27,-0.1875,-0.25,0.1875,4.0625,78.875,-10.5625,0.0,-1.8125,-18.8125,0.986389,0.163513,0.016418,0.0,-0.01,0.0,0.01,-0.31,3.16,9.27,23
4.372586,-0.32,3.14,9.24,-0.25,-0.5,0.3125,4.0625,78.875,-10.5625,0.0,-1.8125,-18.8125,0.986389,0.163513,0.016418,0.0,0.0,-0.02,-0.03,-0.31,3.16,9.27,23
4.3836,-0.33,3.16,9.25,0.0,-0.375,0.25,4.0625,78.875,-10.5625,0.0,-1.8125,-18.8125,0.986389,0.163513,0.016418,0.0,0.0,0.0,0.03,-0.31,3.16,9.27,23
4.394614,-0.31,3.16,9.3,-0.0625,-0.375,0.1875,4.0625,78.875,-10.5625,0.0,-1.8125,-18.8125,0.986389,0.163513,0.016418,0.0,-0.01,0.0,0.01,-0.31,3.16,9.27,23
4.405628,-0.33,3.16,9.28,-0.125,-0.5,0.3125,4.0625,78.875,-10.5625,0.0,-1.8125,-18.8125,0.986389,0.163513,0.016418,0.0,-0.01,0.0,0.01,-0.31,3.16,9.27,23
4.416642,-0.32,3.14,9.25,-0.1875,-0.4375,0.3125,3.0,77.75,-11.0,0.0,-1.8125,-18.8125,0.986389,0.163513,0.016418,0.0,0.0,0.0,0.01,-0.31,3.16,9.27,23
4.427656,-0.32,3.15,9.28,-0.125,-0.4375,0.1875,3.0,77.75,-11.0,0.0,-1.8125,-18.8125,0.986389,0.163513,0.016418,0.0,0.0,0.0,-0.01,-0.31,3.16,9.27,23
4.43867,-0.32,3.15,9.25,-0.1875,-0.3125,0.125,3.0,77.75,-11.0,0.0,-1.8125,-18.8125,0.986389,0.163513,0.016418,0.0,0.0,0.01,0.01,-0.31,3.16,9.27,23
4.449684,-0.32,3.17,9.29,-0.125,-0.3125,0.0625,3.0,77.75,-11.0,0.0,-1.8125,-18.8125,0.986389,0.163513,0.016418,0.0,-0.01,0.0,0.01,-0.31,3.16,9.27,23
4.460699,-0.33,3.16,9.29,0.0,-0.1875,0.375,5.5625,77.375,-14.875,0.0,-1.8125,-18.8125,0.986389,0.163513,0.016418,0.0,0.0,-0.01,0.0,-0.31,3.16,9.27,23
4.471713,-0.32,3.15,9.27,-0.1875,-0.125,0.125,5.5625,77.375,-14.875,0.0,-1.8125,-18.8125,0.986389,0.163513,0.016418,0.0,0.0,0.01,0.0,-0.31,3.16,9.27,23
4.482727,-0.31,3.17,9.26,-0.0625,-0.1875,0.125,5.5625,77.375,-14.875,0.0,-1.8125,-18.8125,0.986389,0.163513,0.016418,0.0,0.0,0.01,0.01,-0.31,3.16,9.27,23
4.493741,-0.32,3.17,9.29,-0.125,-0.0625,0.25,5.5625,77.375,-14.875,0.0,-1.8125,-18.8125,0.986389,0.163513,0.016418,0.0,-0.01,0.01,-0.01,-0.31,3.16,9.27,23
4.504755,-0.33,3.17,9.26,-0.1875,-0.3125,0.375,5.5625,77.375,-14.875,0.0,-1.8125,-18.8125,0.986389,0.163513,0.016418,0.0,0.0,0.0,0.0,-0.31,3.16,9.27,23
4.515769,-0.31,3.16,9.26,0.0,-0.1875,0.1875,0.75,79.6875,-10.1875,0.0,-1.8125,-18.8125,0.986389,0.163513,0.016418,0.0,-0.01,0.0,0.01,-0.31,3.16,9.27,23
4.526783,-0.32,3.15,9.3,0.1875,-0.0625,0.25,0.75,79.6875,-10.1875,0.0,-1.8125,-18.8125,0.986389,0.163513,0.016418,0.0,0.0,0.0,0.02,-0.31,3.16,9.27,23
4.537797,-0.32,3.15,9.26,-0.1875,-0.625,0.1875,0.75,79.6875,-10.1875,0.0,-1.8125,-18.8125,0.986389,0.163513,0.016357,-6.1e-05,-0.01,0.0,0.0,-0.31,3.16,9.27,23
4.548811,-0.33,3.16,9.27,0.0625,-0.25,0.1875,0.75,79.6875,-10.1875,0.0,-1.8125,-18.8125,0.986389,0.163513,0.016357,-6.1e-05,-0.01,0.0,0.0,-0.31,3.16,9.27,23
4.559825,-0.33,3.16,9.26,-0.0625,-0.3125,0.25,0.75,79.6875,-10.1875,0.0,-1.8125,-18.8125,0.986389,0.163513,0.016357,-6.1e-05,-0.01,0.0,0.0,-0.31,3.16,9.27,23
4.570839,-0.31,3.16,9.27,0.0625,-0.25,0.25,2.25,78.875,-10.5625,0.0,-1.8125,-18.8125,0.986389,0.163513,0.016357,-6.1e-05,0.0,-0.01,0.01,-0.31,3.16,9.27,23
4.581853,-0.31,3.15,9.28,-0.125,-0.3125,0.25,2.25,78.875,-10.5625,0.0,-1.8125,-18.8125,0.986389,0.163513,0.016357,-6.1e-05,0.0,0.0,-0.01,-0.31,3.16,9.27,23
4.592867,-0.32,3.15,9.25,-0.25,-0.5625,0.125,2.25,78.875,-10.5625,0.0,-1.8125,-18.8125,0.986389,0.163513,0.016357,-6.1e-05,-0.01,0.0,-0.01,-0.31,3.16,9.27,23
4.603881,-0.33,3.16,9.25,-0.125,-0.5,0.1875,2.25,78.875,-10.5625,0.0,-1.8125,-18.8125,0.986389,0.163513,0.016357,-6.1e-05,-0.01,0.0,0.0,-0.31,3.16,9.27,23
4.614896,-0.33,3.16,9.27,-0.0625,-0.125,0.3125,1.0625,78.5625,-11.0,0.0,-1.8125,-18.8125,0.986389,0.163513,0.016357,-6.1e-05,0.0,-0.01,0.01,-0.31,3.16,9.27,23
4.62591,-0.31,3.16,9.28,-0.125,-0.1875,0.1875,1.0625,78.5625,-11.0,0.0,-1.8125,-18.8125,0.986389,0.163513,0.016357,-6.1e-05,0.0,0.0,0.01,-0.31,3.16,9.27,23
4.636924,-0.32,3.16,9.25,-0.1875,-0.375,0.125,1.0625,78.5625,-11.0,0.0,-1.8125,-18.8125,0.986389,0.163513,0.016357,-6.1e-05,0.0,0.0,-0.01,-0.31,3.16,9.27,23
4.647938,-0.32,3.15,9.25,-0.125,-0.5,0.25,1.0625,78.5625,-11.0,0.0,-1.8125,-18.8125,0.986389,0.163513,0.016357,-6.1e-05,0.0,-0.01,0.0,-0.31,3.16,9.27,23
4.658952,-0.32,3.15,9.26,-0.125,-0.25,0.1875,1.0625,78.5625,-11.0,0.0,-1.8125,-18.8125,0.986389,0.163513,0.016357,-6.1e-05,0.0,-0.01,0.0,-0.31,3.16,9.27,23
4.669966,-0.32,3.16,9.28,-0.125,-0.3125,0.1875,2.5625,78.1875,-11.75,0.0,-1.8125,-18.8125,0.986389,0.163513,0.016357,-6.1e-05,-0.01,0.0,0.0,-0.31,3.16,9.27,23
4.68098,-0.33,3.16,9.28,0.0625,-0.0625,0.3125,2.5625,78.1875,-11.75,0.0,-1.8125,-18.8125,0.986389,0.163513,0.016357,-6.1e-05,0.0,0.0,0.0,-0.31,3.16,9.27,23
4.691994,-0.32,3.15,9.27,-0.125,-0.375,0.1875,2.5625,78.1875,-11.75,0.0,-1.8125,-18.8125,0.986389,0.163513,0.016357,-6.1e-05,0.0,-0.01,0.0,-0.31,3.16,9.27,23
4.703008,-0.32,3.14,9.26,-0.125,-0.5,0.25,2.5625,78.1875,-11.75,0.0,-1.8125,-18.8125,0.986389,0.163513,0.016357,-6.1e-05,0.0,0.0,0.0,-0.31,3.16,9.27,23
4.714022,-0.32,3.15,9.28,-0.375,-0.375,0.3125,6.75,76.75,-14.5625,0.0,-1.8125,-18.8125,0.986389,0.163513,0.016357,-6.1e-05,0.0,0.0,0.0,-0.31,3.16,9.27,23
4.725036,-0.31,3.17,9.27,-0.0625,-0.3125,0.1875,6.75,76.75,-14.5625,0.0,-1.8125,-18.8125,0.986389,0.163513,0.016357,-6.1e-05,0.0,0.01,0.0,-0.31,3.16,9.27,23
4.73605,-0.31,3.16,9.25,-0.25,-0.3125,0.3125,6.75,76.75,-14.5625,0.0,-1.8125,-18.8125,0.986389,0.163513,0.016357,-6.1e-05,0.0,0.0,0.0,-0.31,3.16,9.27,23
4.747064,-0.31,3.16,9.28,0.0625,-0.1875,0.3125,6.75,76.75,-14.5625,0.0,-1.8125,-18.8125,0.986389,0.163513,0.016357,-6.1e-05,0.0,0.02,0.0,-0.31,3.16,9.27,23
4.758078,-0.32,3.18,9.27,0.0625,-0.25,0.1875,6.75,76.75,-14.5625,0.0,-1.8125,-18.8125,0.986389,0.163513,0.016357,-6.1e-05,0.0,0.02,0.0,-0.31,3.16,9.27,23
4.769092,-0.32,3.15,9.27,-0.25,-0.0625,0.25,5.25,78.5625,-15.75,0.0,-1.8125,-18.8125,0.986389,0.163513,0.016357,-6.1e-05,0.0,0.01,-0.01,-0.31,3.16,9.27,23
4.780107,-0.32,3.17,9.25,-0.25,-0.375,0.0625,5.25,78.5625,-15.75,0.0,-1.8125,-18.8125,0.986389,0.163513,0.016357,-6.1e-05,0.0,0.0,-0.02,-0.31,3.16,9.27,23
4.791121,-0.31,3.15,9.25,-0.125,-0.375,0.125,5.25,78.5625,-15.75,0.0,-1.8125,-18.8125,0.986389,0.163513,0.016357,-6.1e-05,-0.01,0.01,-0.02,-0.31,3.16,9.27,23
4.802135,-0.33,3.17,9.25,-0.3125,-0.125,0.1875,5.25,78.5625,-15.75,0.0,-1.8125,-18.8125,0.986389,0.163513,0.016357,-6.1e-05,-0.01,0.02,-0.02,-0.31,3.16,9.27,23
4.813149,-0.33,3.18,9.25,-0.1875,-0.375,0.125,5.25,77.0625,-15.25,0.0,-1.8125,-18.8125,0.986389,0.163513,0.016357,-6.1e-05,0.0,-0.01,0.03,-0.31,3.16,9.27,23
4.824163,-0.33,3.14,9.28,-0.1875,-0.1875,0.1875,5.25,77.0625,-15.25,0.0,-1.8125,-18.8125,0.986389,0.163513,0.016357,-6.1e-05,-0.01,-0.01,0.01,-0.31,3.16,9.27,23
4.835177,-0.32,3.15,9.25,0.0625,-0.625,0.1875,5.25,77.0625,-15.25,0.0,-1.8125,-18.8125,0.986389,0.163513,0.016235,-6.1e-05,-0.01,0.0,-0.01,-0.31,3.16,9.27,23
4.846191,-0.33,3.16,9.26,-0.1875,-0.625,0.25,5.25,77.0625,-15.25,0.0,-1.8125,-18.8125,0.986389,0.163513,0.016235,-6.1e-05,0.0,0.01,-0.01,-0.31,3.16,9.27,23
4.857205,-0.32,3.17,9.26,-0.125,-0.3125,0.1875,5.25,77.0625,-15.25,0.0,-1.8125,-18.8125,0.986389,0.163513,0.016235,-6.1e-05,0.0,0.01,-0.01,-0.31,3.16,9.27,23
4.868219,-0.33,3.14,9.29,0.0625,-0.1875,0.3125,4.0625,77.5,-15.25,0.0,-1.8125,-18.8125,0.986389,0.163513,0.016235,-6.1e-05,-0.01,0.0,-0.01,-0.31,3.16,9.27,23
4.879233,-0.33,3.15,9.26,0.0,-0.375,0.1875,4.0625,77.5,-15.25,0.0,-1.8125,-18.8125,0.986389,0.163513,0.016235,-6.1e-05,-0.01,-0.02,0.0,-0.31,3.16,9.27,23
4.890247,-0.33,3.14,9.28,-0.0625,-0.0625,0.1875,4.0625,77.5,-15.25,0.0,-1.8125,-18.8125,0.986389,0.163513,0.016235,-6.1e-05,0.0,0.01,0.0,-0.31,3.16,9.27,23
4.901261,-0.32,3.17,9.27,-0.0625,0.0625,0.0625,4.0625,77.5,-15.25,0.0,-1.8125,-18.8125,0.986389,0.163513,0.016235,-6.1e-05,-0.01,0.0,-0.01,-0.31,3.16,9.27,23
4.912275,-0.32,3.16,9.26,-0.125,-0.25,0.25,7.0625,77.5,-14.875,0.0,-1.8125,-18.8125,0.986389,0.163513,0.016235,-6.1e-05,0.0,0.0,0.02,-0.31,3.16,9.27,23
4.923289,-0.32,3.16,9.3,-0.375,-0.25,0.25,7.0625,77.5,-14.875,0.0,-1.8125,-18.8125,0.986389,0.163513,0.016235,-6.1e-05,-0.02,0.0,0.0,-0.31,3.16,9.27,23
4.934304,-0.33,3.16,9.27,-0.125,-0.25,0.1875,7.0625,77.5,-14.875,0.0,-1.8125,-18.8125,0.986389,0.163513,0.016235,-6.1e-05,-0.01,0.0,0.0,-0.31,3.16,9.27,23
4.945318,-0.32,3.16,9.27,0.0625,-0.0625,0.3125,7.0625,77.5,-14.875,0.0,-1.8125,-18.8125,0.986389,0.163513,0.016235,-6.1e-05,-0.01,-0.01,-0.01,-0.31,3.16,9.27,23
4.956332,-0.32,3.15,9.25,0.0,-0.5,0.1875,7.0625,77.5,-14.875,0.0,-1.8125,-18.8125,0.986389,0.163513,0.016235,-6.1e-05,0.0,0.01,0.0,-0.31,3.16,9.27,23
4.967346,-0.31,3.17,9.27,0.125,-0.25,0.3125,2.5625,78.875,-11.375,0.0,-1.8125,-18.8125,0.986389,0.163513,0.016235,-6.1e-05,0.0,0.01,-0.02,-0.31,3.16,9.27,23
4.97836,-0.33,3.16,9.27,-0.125,-0.5,0.1875,2.5625,78.875,-11.375,0.0,-1.8125,-18.8125,0.986389,0.163513,0.016235,-6.1e-05,-0.01,0.0,0.0,-0.31,3.16,9.27,23
4.989374,-0.31,3.15,9.26,-0.375,-0.625,0.1875,2.5625,78.875,-11.375,0.0,-1.8125,-18.8125,0.986389,0.163513,0.016235,-6.1e-05,0.0,0.0,-0.03,-0.31,3.16,9.27,23
5.000388,-0.32,3.16,9.24,0.0625,-0.3125,0.1875,2.5625,78.875,-11.375,0.0,-1.8125,-18.8125,0.986389,0.163513,0.016235,-6.1e-05,0.0,-0.01,-0.02,-0.31,3.16,9.27,23
5.011402,-0.31,3.14,9.25,0.125,-0.375,0.3125,2.5625,78.875,-11.375,0.0,-1.8125,-18.8125,0.986389,0.163513,0.016235,-6.1e-05,0.0,-0.01,-0.02,-0.31,3.16,9.27,23
5.022416,-0.32,3.18,9.28,-0.1875,-0.3125,0.125,2.5625,78.1875,-10.5625,0.0,-1.8125,-18.8125,0.986389,0.163513,0.016235,-6.1e-05,-0.01,0.0,0.01,-0.31,3.16,9.27,23
5.03343,-0.32,3.15,9.28,-0.125,-0.25,0.25,2.5625,78.1875,-10.5625,0.0,-1.8125,-18.8125,0.986389,0.163513,0.016235,-6.1e-05,-0.02,0.0,0.0,-0.31,3.16,9.27,23
5.044444,-0.33,3.15,9.26,0.0,-0.25,0.25,2.5625,78.1875,-10.5625,0.0,-1.8125,-18.8125,0.986389,0.163513,0.016235,-6.1e-05,0.0,0.0,-0.01,-0.31,3.16,9.27,23
5.055458,-0.31,3.16,9.25,-0.125,-0.25,0.1875,2.5625,78.1875,-10.5625,0.0,-1.8125,-18.8125,0.986389,0.163513,0.016235,-6.1e-05,-0.01,-0.01,0.0,-0.31,3.16,9.27,23
5.066472,-0.33,3.15,9.28,-0.0625,-0.3125,0.1875,5.25,77.5,-15.75,0.0,-1.8125,-18.8125,0.986389,0.163513,0.016235,-6.1e-05,0.0,0.0,0.0,-0.31,3.16,9.27,23
5.077486,-0.32,3.15,9.25,-0.125,-0.3125,0.25,5.25,77.5,-15.75,0.0,-1.8125,-18.8125,0.986389,0.163513,0.016235,-6.1e-05,0.0,0.0,-0.02,-0.31,3.16,9.27,23
5.088501,-0.32,3.16,9.25,-0.125,-0.25,0.25,5.25,77.5,-15.75,0.0,-1.8125,-18.8125,0.986389,0.163513,0.016235,-6.1e-05,0.0,0.0,0.0,-0.31,3.16,9.27,23
5.099515,-0.31,3.16,9.27,-0.375,-0.4375,0.1875,5.25,77.5,-15.75,0.0,-1.8125,-18.8125,0.986389,0.163513,0.016235,-6.1e-05,0.0,-0.01,0.0,-0.31,3.16,9.27,23
5.110529,-0.32,3.15,9.27,-0.1875,-0.125,0.3125,5.25,77.5,-15.75,0.0,-1.8125,-18.8125,0.986389,0.163513,0.016235,-6.1e-05,0.0,-0.01,0.0,-0.31,3.16,9.27,23
5.121543,-0.31,3.15,9.29,0.0,-0.3125,0.25,2.5625,78.875,-11.0,0.0,-1.8125,-18.8125,0.986389,0.163513,0.016235,-6.1e-05,-0.01,0.01,0.0,-0.31,3.16,9.27,23
5.132557,-0.33,3.17,9.27,-0.0625,-0.3125,0.3125,2.5625,78.875,-11.0,0.0,-1.8125,-18.8125,0.986389,0.163513,0.016235,-6.1e-05,-0.01,-0.01,0.0,-0.31,3.16,9.27,23
5.143571,-0.33,3.14,9.26,-0.125,0.1875,0.1875,2.5625,78.875,-11.0,0.0,-1.8125,-18.8125,0.986389,0.163513,0.016235,-6.1e-05,-0.01,0.0,-0.01,-0.31,3.16,9.27,23
5.154585,-0.33,3.16,9.26,-0.3125,-0.3125,0.125,2.5625,78.875,-11.0,0.0,-1.8125,-18.8125,0.986389,0.163513,0.016235,-6.1e-05,-0.01,0.0,0.0,-0.31,3.16,9.27,23
5.165599,-0.33,3.16,9.27,-0.4375,0.0,0.1875,1.875,79.25,-10.5625,0.0,-1.8125,-18.8125,0.986389,0.163513,0.016235,-6.1e-05,0.0,-0.02,-0.01,-0.31,3.16,9.27,23
5.176613,-0.32,3.17,9.27,-0.1875,-0.1875,0.1875,1.875,79.25,-10.5625,0.0,-1.8125,-18.8125,0.986389,0.163513,0.016235,-6.1e-05,-0.01,0.01,0.0,-0.31,3.16,9.27,23
5.187627,-0.32,3.16,9.28,0.0625,-0.1875,0.25,1.875,79.25,-10.5625,0.0,-1.8125,-18.8125,0.986389,0.163513,0.016235,-6.1e-05,-0.01,0.0,0.0,-0.31,3.16,9.27,23
5.198641,-0.32,3.16,9.27,-0.125,-0.1875,0.1875,1.875,79.25,-10.5625,0.0,-1.8125,-18.8125,0.986389,0.163513,0.016235,-6.1e-05,0.0,-0.02,0.0,-0.31,3.16,9.27,23
5.209655,-0.32,3.13,9.27,0.0625,-0.375,0.1875,1.875,79.25,-10.5625,0.0,-1.8125,-18.8125,0.986389,0.163513,0.016235,-6.1e-05,0.0,-0.02,0.0,-0.31,3.16,9.27,23
5.220669,-0.32,3.13,9.26,0.0625,-0.375,0.25,1.5,77.75,-9.75,0.0,-1.8125,-18.8125,0.986389,0.163513,0.016235,-6.1e-05,-0.02,-0.03,0.0,-0.31,3.16,9.27,23
5.231683,-0.33,3.13,9.28,-0.125,-0.0625,0.25,1.5,77.75,-9.75,0.0,-1.8125,-18.8125,0.986389,0.163513,0.016235,-6.1e-05,-0.01,0.0,-0.03,-0.31,3.16,9.27,23
5.242698,-0.32,3.15,9.24,-0.125,-0.375,0.1875,1.5,77.75,-9.75,0.0,-1.8125,-18.8125,0.986389,0.163513,0.016235,-6.1e-05,0.0,0.0,0.0,-0.31,3.16,9.27,23
5.253712,-0.32,3.16,9.24,0.0,-0.3125,0.125,1.5,77.75,-9.75,0.0,-1.8125,-18.8125,0.986389,0.163513,0.016235,-6.1e-05,-0.01,0.0,-0.03,-0.31,3.16,9.27,23
5.264726,-0.31,3.14,9.25,-0.1875,-0.375,0.1875,1.0625,78.5625,-11.0,0.0,-1.8125,-18.8125,0.986389,0.163513,0.016235,-6.1e-05,-0.01,-0.01,0.01,-0.31,3.16,9.27,23
5.27574,-0.33,3.15,9.28,-0.0625,-0.1875,0.25,1.0625,78.5625,-11.0,0.0,-1.8125,-18.8125,0.986389,0.163513,0.016235,-6.1e-05,-0.01,0.01,0.0,-0.31,3.16,9.27,23
5.286754,-0.33,3.17,9.28,-0.0625,-0.375,0.1875,1.0625,78.5625,-11.0,0.0,-1.8125,-18.8125,0.986389,0.163513,0.016235,-6.1e-05,0.0,0.0,-0.01,-0.31,3.16,9.27,23
5.297768,-0.32,3.16,9.25,-0.125,-0.4375,0.3125,1.0625,78.5625,-11.0,0.0,-1.8125,-18.8125,0.986389,0.163513,0.016235,-6.1e-05,0.0,0.0,0.0,-0.31,3.16,9.27,23
5.308782,-0.31,3.16,9.28,-0.0625,-0.0625,0.25,1.0625,78.5625,-11.0,0.0,-1.8125,-18.8125,0.986389,0.163513,0.016235,-6.1e-05,0.0,0.0,0.0,-0.31,3.16,9.27,23
5.319796,-0.32,3.14,9.26,-0.25,-0.25,0.1875,1.875,78.875,-9.75,0.0,-1.8125,-18.8125,0.986389,0.163513,0.016235,-6.1e-05,-0.01,0.0,0.0,-0.31,3.16,9.27,23
5.33081,-0.33,3.16,9.27,-0.3125,-0.375,0.25,1.875,78.875,-9.75,0.0,-1.8125,-18.8125,0.986389,0.163513,0.016235,-6.1e-05,0.0,0.0,-0.02,-0.31,3.16,9.27,23
5.341824,-0.3,3.15,9.25,-0.125,-0.3125,0.0625,1.875,78.875,-9.75,0.0,-1.8125,-18.8125,0.986389,0.163513,0.016235,-6.1e-05,-0.02,0.01,0.0,-0.31,3.16,9.27,23
5.352838,-0.33,3.17,9.28,-0.125,-0.375,0.375,1.875,78.875,-9.75,0.0,-1.8125,-18.8125,0.986389,0.163513,0.016235,-6.1e-05,0.0,0.0,0.01,-0.31,3.16,9.27,23
5.363852,-0.31,3.16,9.28,0.0625,-0.375,0.3125,1.5,78.1875,-10.5625,0.0,-1.8125,-18.8125,0.986389,0.163513,0.016235,-6.1e-05,0.0,0.0,0.0,-0.31,3.16,9.27,23
5.374866,-0.31,3.16,9.27,-0.0625,-0.1875,0.3125,1.5,78.1875,-10.5625,0.0,-1.8125,-18.8125,0.986389,0.163513,0.016235,-6.1e-05,0.0,0.0,0.0,-0.31,3.16,9.27,23
5.38588,-0.32,3.15,9.24,0.0625,-0.1875,0.1875,1.5,78.1875,-10.5625,0.0,-1.8125,-18.8125,0.986389,0.163513,0.016235,-6.1e-05,0.0,0.0,-0.01,-0.31,3.16,9.27,23
5.396895,-0.31,3.15,9.25,-0.125,-0.3125,0.1875,1.5,78.1875,-10.5625,0.0,-1.8125,-18.8125,0.986389,0.163513,0.016235,-6.1e-05,-0.02,0.0,0.01,-0.31,3.16,9.27,23
5.407909,-0.33,3.16,9.28,-0.3125,-0.375,0.3125,1.5,78.1875,-10.5625,0.0,-1.8125,-18.8125,0.986389,0.163513,0.016235,-6.1e-05,-0.02,0.0,0.01,-0.31,3.16,9.27,23
5.418923,-0.32,3.16,9.27,-0.0625,-0.1875,0.1875,1.5,78.875,-10.1875,0.0,-1.8125,-18.8125,0.986389,0.163513,0.016235,-6.1e-05,0.0,-0.01,0.0,-0.31,3.16,9.27,23
5.429937,-0.32,3.14,9.27,0.0,-0.1875,0.3125,1.5,78.875,-10.1875,0.0,-1.8125,-18.8125,0.986389,0.163513,0.016235,-6.1e-05,-0.01,-0.01,0.0,-0.31,3.16,9.27,23
5.440951,-0.32,3.15,9.27,-0.0625,-0.0625,0.25,1.5,78.875,-10.1875,0.0,-1.8125,-18.8125,0.986389,0.163513,0.016235,-6.1e-05,0.0,-0.01,0.0,-0.31,3.16,9.27,23
5.451965,-0.32,3.16,9.25,-0.125,-0.125,0.3125,1.5,78.875,-10.1875,0.0,-1.8125,-18.8125,0.986389,0.163513,0.016235,-6.1e-05,0.0,0.0,-0.01,-0.31,3.16,9.27,23
5.462979,-0.32,3.17,9.27,-0.1875,-0.5,0.125,3.375,78.875,-11.0,0.0,-1.8125,-18.8125,0.986389,0.163513,0.016235,-6.1e-05,-0.01,0.02,0.02,-0.31,3.16,9.27,23
5.473993,-0.33,3.18,9.3,-0.125,-0.5,0.25,3.375,78.875,-11.0,0.0,-1.8125,-18.8125,0.986389,0.163513,0.016235,-6.1e-05,0.0,-0.01,-0.03,-0.31,3.16,9.27,23
5.485007,-0.31,3.15,9.24,-0.1875,-0.4375,0.1875,3.375,78.875,-11.0,0.0,-1.8125,-18.8125,0.986389,0.163513,0.016235,-6.1e-05,-0.01,0.0,-0.01,-0.31,3.16,9.27,23
5.496021,-0.32,3.16,9.25,-0.25,-0.3125,0.1875,3.375,78.875,-11.0,0.0,-1.8125,-18.8125,0.986389,0.163513,0.016235,-6.1e-05,0.0,-0.01,-0.01,-0.31,3.16,9.27,23
5.507035,-0.32,3.15,9.26,-0.1875,-0.3125,0.1875,3.375,78.875,-11.0,0.0,-1.8125,-18.8125,0.986389,0.163513,0.016235,-6.1e-05,0.0,-0.01,-0.01,-0.31,3.16,9.27,23
5.518049,-0.32,3.15,9.26,-0.0625,-0.3125,0.125,1.5,79.25,-11.0,0.0,-1.8125,-18.8125,0.986389,0.163513,0.016235,-6.1e-05,0.0,0.0,0.0,-0.31,3.16,9.27,23
5.529063,-0.31,3.16,9.27,-0.0625,-0.3125,0.1875,1.5,79.25,-11.0,0.0,-1.8125,-18.8125,0.986389,0.163513,0.016235,-6.1e-05,-0.01,-0.01,-0.03,-0.31,3.16,9.27,23
5.540077,-0.32,3.14,9.24,-0.125,-0.3125,0.3125,1.5,79.25,-11.0,0.0,-1.8125,-18.8125,0.986389,0.163513,0.016235,-6.1e-05,-0.01,0.0,-0.01,-0.31,3.16,9.27,23
5.551091,-0.32,3.16,9.26,0.0,-0.3125,0.1875,1.5,79.25,-11.0,0.0,-1.8125,-18.8125,0.986389,0.163513,0.016235,-6.1e-05,-0.02,0.0,0.0,-0.31,3.16,9.27,23
5.562106,-0.33,3.16,9.27,-0.125,-0.375,0.125,3.75,80.0625,-10.1875,0.0,-1.8125,-18.8125,0.986389,0.163513,0.016235,-6.1e-05,0.0,0.0,0.0,-0.31,3.16,9.27,23
5.57312,-0.31,3.16,9.28,0.0,-0.0625,0.125,3.75,80.0625,-10.1875,0.0,-1.8125,-18.8125,0.986389,0.163513,0.016235,-6.1e-05,-0.01,0.0,0.01,-0.31,3.16,9.27,23
5.584134,-0.32,3.16,9.29,-0.25,-0.25,0.25,3.75,80.0625,-10.1875,0.0,-1.8125,-18.8125,0.986389,0.163513,0.016235,-6.1e-05,0.0,0.0,-0.02,-0.31,3.16,9.27,23
5.595148,-0.31,3.16,9.25,-0.25,-0.1875,0.25,3.75,80.0625,-10.1875,0.0,-1.8125,-18.8125,0.986389,0.163513,0.016235,-6.1e-05,-0.02,0.0,0.0,-0.31,3.16,9.27,23
5.606162,-0.33,3.15,9.27,-0.1875,-0.5625,0.125,3.75,80.0625,-10.1875,0.0,-1.8125,-18.8125,0.986389,0.163513,0.016235,-6.1e-05,-0.01,0.0,-0.03,-0.31,3.16,9.27,23
5.617176,-0.32,3.16,9.24,-0.25,-0.5625,0.1875,1.875,79.25,-10.5625,0.0,-1.8125,-18.8125,0.986389,0.163513,0.016235,-6.1e-05,0.0,0.0,0.0,-0.31,3.16,9.27,23
5.62819,-0.32,3.17,9.27,-0.1875,-0.25,0.25,1.875,79.25,-10.5625,0.0,-1.8125,-18.8125,0.986389,0.163513,0.016235,-6.1e-05,-0.01,0.01,0.0,-0.31,3.16,9.27,23
5.639204,-0.32,3.14,9.26,-0.1875,-0.375,0.0625,1.875,79.25,-10.5625,0.0,-1.8125,-18.8125,0.986389,0.163513,0.016235,-6.1e-05,-0.01,0.0,0.0,-0.31,3.16,9.27,23
5.650218,-0.33,3.16,9.27,0.125,0.0625,0.1875,1.875,79.25,-10.5625,0.0,-1.8125,-18.8125,0.986389,0.163513,0.016235,-6.1e-05,-0.02,0.0,0.0,-0.31,3.16,9.27,23
5.661232,-0.33,3.15,9.27,-0.3125,-0.5,0.25,1.875,79.25,-10.5625,0.0,-1.8125,-18.8125,0.986389,0.163513,0.016235,-6.1e-05,-0.02,0.0,0.0,-0.31,3.16,9.27,23
5.672246,-0.32,3.15,9.26,-0.0625,-0.1875,0.1875,3.0,78.1875,-11.375,0.0,-1.8125,-18.8125,0.986389,0.163513,0.016235,-6.1e-05,-0.01,0.0,-0.02,-0.31,3.16,9.27,23
5.68326,-0.32,3.16,9.25,-0.1875,-0.1875,0.1875,3.0,78.1875,-11.375,0.0,-1.8125,-18.8125,0.986389,0.163513,0.016235,-6.1e-05,-0.01,0.0,-0.01,-0.31,3.16,9.27,23
5.694274,-0.33,3.15,9.26,-0.1875,-0.125,0.1875,3.0,78.1875,-11.375,0.0,-1.8125,-18.8125,0.986389,0.163513,0.016235,-6.1e-05,-0.02,0.0,0.0,-0.31,3.16,9.27,23
5.705288,-0.33,3.16,9.28,0.0625,-0.125,0.25,3.0,78.1875,-11.375,0.0,-1.8125,-18.8125,0.986389,0.163513,0.016235,-6.1e-05,0.0,0.0,0.0,-0.31,3.16,9.27,23
5.716303,-0.3,3.16,9.27,0.125,-0.1875,0.25,4.875,76.75,-14.0625,0.0,-1.8125,-18.8125,0.986389,0.163513,0.016235,-6.1e-05,-0.02,0.0,-0.03,-0.31,3.16,9.27,23
5.727317,-0.32,3.16,9.29,0.1875,-0.0625,0.25,4.875,76.75,-14.0625,0.0,-1.8125,-18.8125,0.986389,0.163513,0.016235,-6.1e-05,0.0,0.0,0.02,-0.31,3.16,9.27,23
5.738331,-0.32,3.13,9.26,-0.125,-0.375,0.3125,4.875,76.75,-14.0625,0.0,-1.8125,-18.8125,0.986389,0.163513,0.016235,-6.1e-05,-0.01,-0.01,-0.01,-0.31,3.16,9.27,23
5.749345,-0.33,3.14,9.25,-0.25,-0.4375,0.1875,4.875,76.75,-14.0625,0.0,-1.8125,-18.8125,0.986389,0.163513,0.016235,-6.1e-05,0.0,0.0,0.0,-0.31,3.16,9.27,23
5.760359,-0.31,3.16,9.27,-0.25,-0.5625,0.25,4.875,76.75,-14.0625,0.0,-1.8125,-18.8125,0.986389,0.163513,0.016235,-6.1e-05,0.0,0.0,0.0,-0.31,3.16,9.27,23
5.771373,-0.32,3.16,9.25,0.0625,-0.1875,0.3125,3.0,80.0625,-11.375,0.0,-1.8125,-18.8125,0.986389,0.163513,0.016235,-6.1e-05,0.0,0.0,0.0,-0.31,3.16,9.27,23
5.782387,-0.32,3.16,9.28,0.0,-0.3125,0.25,3.0,80.0625,-11.375,0.0,-1.8125,-18.8125,0.986389,0.163513,0.016235,-6.1e-05,-0.01,0.0,-0.01,-0.31,3.16,9.27,23
5.793401,-0.32,3.16,9.25,-0.0625,-0.3125,0.25,3.0,80.0625,-11.375,0.0,-1.8125,-18.8125,0.986389,0.163513,0.016235,-6.1e-05,0.0,0.0,0.0,-0.31,3.16,9.27,23
5.804415,-0.32,3.14,9.28,-0.3125,-0.1875,0.25,3.0,80.0625,-11.375,0.0,-1.8125,-18.8125,0.986389,0.163513,0.016235,-6.1e-05,-0.01,-0.02,0.01,-0.31,3.16,9.27,23
5.815429,-0.31,3.17,9.27,-0.4375,-0.375,0.1875,1.5,77.75,-11.375,0.0,-1.8125,-18.8125,0.986389,0.163513,0.016235,-6.1e-05,0.0,0.0,-0.01,-0.31,3.16,9.27,23
5.826443,-0.32,3.16,9.26,-0.4375,-0.375,0.1875,1.5,77.75,-11.375,0.0,-1.8125,-18.8125,0.986389,0.163513,0.016235,-6.1e-05,0.0,-0.01,-0.01,-0.31,3.16,9.27,23
5.837457,-0.31,3.14,9.25,-0.125,-0.0625,0.25,1.5,77.75,-11.375,0.0,-1.8125,-18.8125,0.986389,0.163513,0.016235,-6.1e-05,-0.01,-0.01,0.0,-0.31,3.16,9.27,23
5.848471,-0.33,3.14,9.27,-0.3125,-0.25,0.25,1.5,77.75,-11.375,0.0,-1.8125,-18.8125,0.986389,0.163513,0.016235,-6.1e-05,0.0,-0.02,0.03,-0.31,3.16,9.27,23
5.859485,-0.32,3.14,9.3,0.1875,0.0,0.3125,0.375,78.5625,-9.75,0.0,-1.8125,-18.8125,0.986389,0.163513,0.016235,-6.1e-05,0.0,0.0,-0.01,-0.31,3.16,9.27,23
5.8705,-0.31,3.15,9.26,-0.1875,-0.1875,0.25,0.375,78.5625,-9.75,0.0,-1.8125,-18.8125,0.986389,0.163513,0.016235,-6.1e-05,-0.01,0.0,0.0,-0.31,3.16,9.27,23
5.881514,-0.32,3.16,9.26,0.0625,-0.125,0.3125,0.375,78.5625,-9.75,0.0,-1.8125,-18.8125,0.986389,0.163513,0.016235,-6.1e-05,0.0,-0.01,-0.02,-0.31,3.16,9.27,23
5.892528,-0.32,3.14,9.25,-0.0625,-0.375,0.1875,0.375,78.5625,-9.75,0.0,-1.8125,-18.8125,0.986389,0.163513,0.016235,-6.1e-05,0.0,0.0,0.01,-0.31,3.16,9.27,23
5.903542,-0.32,3.16,9.28,-0.1875,-0.125,0.1875,0.375,78.5625,-9.75,0.0,-1.8125,-18.8125,0.986389,0.163513,0.016235,-6.1e-05,0.0,0.0,0.0,-0.31,3.16,9.27,23
5.914556,-0.32,3.16,9.27,-0.4375,-0.25,0.1875,1.875,78.1875,-11.75,0.0,-1.8125,-18.8125,0.986389,0.163513,0.016235,-6.1e-05,-0.01,0.0,-0.01,-0.31,3.16,9.27,23
5.92557,-0.32,3.17,9.28,-0.0625,-0.125,0.25,1.875,78.1875,-11.75,0.0,-1.8125,-18.8125,0.986389,0.163513,0.016235,-6.1e-05,0.0,0.01,0.01,-0.31,3.16,9.27,23
5.936584,-0.31,3.15,9.26,-0.1875,-0.375,0.125,1.875,78.1875,-11.75,0.0,-1.8125,-18.8125,0.986389,0.163513,0.016235,-6.1e-05,0.0,0.0,-0.02,-0.31,3.16,9.27,23
5.947598,-0.31,3.15,9.25,0.125,-0.375,0.3125,1.875,78.1875,-11.75,0.0,-1.8125,-18.8125,0.986389,0.163513,0.016235,-6.1e-05,-0.02,0.0,0.0,-0.31,3.16,9.27,23
5.958612,-0.33,3.15,9.26,-0.0625,-0.3125,0.1875,1.875,78.1875,-11.75,0.0,-1.8125,-18.8125,0.986389,0.163513,0.016235,-6.1e-05,-0.02,0.0,0.0,-0.31,3.16,9.27,23
5.969626,-0.32,3.14,9.3,0.0,-0.125,0.0625,5.5625,78.1875,-15.25,0.0,-1.8125,-18.8125,0.986389,0.163513,0.016235,-6.1e-05,0.0,0.01,-0.02,-0.31,3.16,9.27,23
5.98064,-0.31,3.17,9.25,0.0625,0.0,0.25,5.5625,78.1875,-15.25,0.0,-1.8125,-18.8125,0.986389,0.163513,0.016235,-6.1e-05,0.0,0.0,0.0,-0.31,3.16,9.27,23
5.991654,-0.32,3.15,9.26,-0.25,-0.3125,0.1875,5.5625,78.1875,-15.25,0.0,-1.8125,-18.8125,0.986389,0.163513,0.016235,-6.1e-05,0.0,0.0,0.0,-0.31,3.16,9.27,23
6.002668,-0.33,3.16,9.25,0.0,-0.25,0.125,5.5625,78.1875,-15.25,0.0,-1.8125,-18.8125,0.986389,0.163513,0.016235,-6.1e-05,-0.01,0.0,-0.02,-0.31,3.16,9.27,23
6.013682,-0.32,3.15,9.28,-0.0625,-0.25,0.25,4.875,77.0625,-14.0625,0.0,-1.8125,-18.8125,0.986389,0.163513,0.016235,-6.1e-05,0.0,-0.02,0.01,-0.31,3.16,9.27,23
6.024697,-0.31,3.14,9.28,-0.125,-0.0625,0.25,4.875,77.0625,-14.0625,0.0,-1.8125,-18.8125,0.986389,0.163513,0.016235,-6.1e-05,-0.01,0.01,-0.03,-0.31,3.16,9.27,23
6.035711,-0.32,3.17,9.24,-0.0625,-0.0625,0.25,4.875,77.0625,-14.0625,0.0,-1.8125,-18.8125,0.986389,0.163513,0.016235,-6.1e-05,0.0,-0.02,0.0,-0.31,3.16,9.27,23
6.046725,-0.32,3.14,9.26,-0.125,-0.0625,0.375,4.875,77.0625,-14.0625,0.0,-1.8125,-18.8125,0.986389,0.163513,0.016235,-6.1e-05,0.0,0.0,0.0,-0.31,3.16,9.27,23
6.057739,-0.31,3.16,9.27,-0.0625,-0.4375,0.1875,4.875,77.0625,-14.0625,0.0,-1.8125,-18.8125,0.986389,0.163513,0.016235,-6.1e-05,0.0,0.0,0.0,-0.31,3.16,9.27,23
6.068753,-0.33,3.16,9.25,0.0,-0.3125,0.1875,4.0625,77.875,-15.75,0.0,-1.8125,-18.8125,0.986389,0.163513,0.016235,-6.1e-05,0.0,0.0,0.0,-0.31,3.16,9.27,23
6.079767,-0.32,3.16,9.27,-0.125,-0.3125,0.1875,4.0625,77.875,-15.75,0.0,-1.8125,-18.8125,0.986389,0.163513,0.016235,-6.1e-05,-0.01,0.01,0.0,-0.31,3.16,9.27,23
6.090781,-0.32,3.17,9.28,0.25,-0.1875,0.25,4.0625,77.875,-15.75,0.0,-1.8125,-18.8125,0.986389,0.163513,0.016235,-6.1e-05,-0.01,0.01,-0.01,-0.31,3.16,9.27,23
6.101795,-0.32,3.17,9.26,0.0,-0.0625,0.1875,4.0625,77.875,-15.75,0.0,-1.8125,-18.8125,0.986389,0.163513,0.016235,-6.1e-05,-0.01,-0.02,0.0,-0.31,3.16,9.27,23
6.112809,-0.32,3.14,9.26,-0.1875,-0.5,0.25,4.875,76.375,-14.875,0.0,-1.8125,-18.8125,0.986389,0.163513,0.016235,-6.1e-05,0.0,0.0,-0.03,-0.31,3.16,9.27,23
6.123823,-0.32,3.16,9.24,-0.1875,-0.3125,0.1875,4.875,76.375,-14.875,0.0,-1.8125,-18.8125,0.986389,0.163513,0.016235,-6.1e-05,0.0,0.0,0.0,-0.31,3.16,9.27,23
6.134837,-0.32,3.16,9.28,-0.375,-0.1875,0.25,4.875,76.375,-14.875,0.0,-1.8125,-18.8125,0.986389,0.163513,0.016235,-6.1e-05,0.0,-0.01,0.0,-0.31,3.16,9.27,23
6.145851,-0.31,3.15,9.27,-0.25,-0.1875,0.25,4.875,76.375,-14.875,0.0,-1.8125,-18.8125,0.986389,0.163513,0.016235,-6.1e-05,-0.01,0.01,0.01,-0.31,3.16,9.27,23
6.156865,-0.32,3.17,9.28,-0.3125,-0.1875,0.1875,4.875,76.375,-14.875,0.0,-1.8125,-18.8125,0.986389,0.163513,0.016235,-6.1e-05,-0.01,0.0,0.01,-0.31,3.16,9.27,23
6.167879,-0.33,3.15,9.28,-0.125,-0.3125,0.125,6.0,77.5,-15.75,0.0,-1.8125,-18.8125,0.986389,0.163513,0.016235,-6.1e-05,-0.01,0.0,0.01,-0.31,3.16,9.27,23
6.178894,-0.32,3.15,9.28,-0.1875,-0.0625,0.125,6.0,77.5,-15.75,0.0,-1.8125,-18.8125,0.986389,0.163513,0.016235,-6.1e-05,0.0,0.0,0.0,-0.31,3.16,9.27,23
6.189908,-0.32,3.16,9.27,-0.0625,-0.3125,0.125,6.0,77.5,-15.75,0.0,-1.8125,-18.8125,0.986389,0.163513,0.016235,-6.1e-05,0.0,0.0,-0.01,-0.31,3.16,9.27,23
6.200922,-0.31,3.16,9.25,-0.125,-0.3125,0.25,6.0,77.5,-15.75,0.0,-1.8125,-18.8125,0.986389,0.163513,0.016235,-6.1e-05,-0.01,-0.01,0.0,-0.31,3.16,9.27,23
6.211936,-0.32,3.15,9.27,-0.1875,-0.5,0.25,6.0,77.5,-15.75,0.0,-1.8125,-18.8125,0.986389,0.163513,0.016235,-6.1e-05,-0.01,0.0,0.0,-0.31,3.16,9.27,23
6.22295,-0.32,3.16,9.26,-0.25,-0.375,0.1875,2.25,78.5625,-10.5625,0.0,-1.8125,-18.8125,0.986389,0.163513,0.016235,-6.1e-05,0.0,0.02,0.0,-0.31,3.16,9.27,23
6.233964,-0.33,3.16,9.29,-0.125,-0.1875,0.25,2.25,78.5625,-10.5625,0.0,-1.8125,-18.8125,0.986389,0.163513,0.016235,-6.1e-05,-0.02,0.0,0.01,-0.31,3.16,9.27,23
6.244978,-0.33,3.15,9.26,-0.1875,-0.375,0.25,2.25,78.5625,-10.5625,0.0,-1.8125,-18.8125,0.986389,0.163513,0.016235,-6.1e-05,0.0,0.0,0.0,-0.31,3.16,9.27,23
6.255992,-0.32,3.16,9.27,-0.0625,-0.375,0.3125,2.25,78.5625,-10.5625,0.0,-1.8125,-18.8125,0.986389,0.163513,0.016235,-6.1e-05,0.0,0.0,0.01,-0.31,3.16,9.27,23
6.267006,-0.32,3.16,9.28,-0.25,-0.375,0.25,2.25,78.5625,-10.5625,0.0,-1.8125,-18.8125,0.986389,0.163513,0.016235,-6.1e-05,0.0,0.0,0.01,-0.31,3.16,9.27,23
6.27802,-0.32,3.14,9.29,0.125,0.125,0.0625,2.5625,78.5625,-10.1875,0.0,-1.8125,-18.8125,0.986389,0.163513,0.016235,-6.1e-05,0.0,0.0,-0.01,-0.31,3.16,9.27,23
6.289034,-0.31,3.16,9.26,-0.3125,-0.3125,0.3125,2.5625,78.5625,-10.1875,0.0,-1.8125,-18.8125,0.986389,0.163513,0.016235,-6.1e-05,0.0,0.0,-0.01,-0.31,3.16,9.27,23
6.300048,-0.32,3.16,9.26,-0.0625,-0.25,0.25,2.5625,78.5625,-10.1875,0.0,-1.8125,-18.8125,0.986389,0.163513,0.016235,-6.1e-05,-0.01,-0.01,0.0,-0.31,3.16,9.27,23
6.311062,-0.32,3.15,9.26,-0.25,-0.1875,0.125,2.5625,78.5625,-10.1875,0.0,-1.8125,-18.8125,0.986389,0.163513,0.016235,-6.1e-05,-0.01,0.02,0.0,-0.31,3.16,9.27,23
6.322076,-0.33,3.18,9.27,0.125,0.0,0.0,5.25,76.375,-15.25,0.0,-1.8125,-18.8125,0.986389,0.163513,0.016235,-6.1e-05,-0.01,0.0,0.0,-0.31,3.16,9.27,23
6.33309,-0.32,3.15,9.28,-0.0625,-0.125,0.125,5.25,76.375,-15.25,0.0,-1.8125,-18.8125,0.986389,0.163513,0.016235,-6.1e-05,0.0,0.0,0.0,-0.31,3.16,9.27,23
6.344105,-0.31,3.16,9.27,-0.125,-0.25,0.1875,5.25,76.375,-15.25,0.0,-1.8125,-18.8125,0.986389,0.163513,0.016235,-6.1e-05,-0.02,-0.01,-0.03,-0.31,3.16,9.27,23
6.355119,-0.31,3.15,9.25,-0.0625,0.0,0.3125,5.25,76.375,-15.25,0.0,-1.8125,-18.8125,0.986389,0.163513,0.016235,-6.1e-05,0.0,0.0,-0.01,-0.31,3.16,9.27,23
6.366133,-0.32,3.16,9.27,-0.0625,-0.25,0.3125,5.25,76.375,-15.25,0.0,-1.8125,-18.8125,0.986389,0.163513,0.016235,-6.1e-05,0.0,0.0,0.0,-0.31,3.16,9.27,23
6.377147,-0.31,3.16,9.28,-0.1875,-0.125,0.3125,2.25,78.5625,-10.1875,0.0,-1.8125,-18.8125,0.986389,0.163513,0.016235,-6.1e-05,-0.01,0.0,0.03,-0.31,3.16,9.27,23
6.388161,-0.32,3.16,9.31,0.0,-0.0625,0.1875,2.25,78.5625,-10.1875,0.0,-1.8125,-18.8125,0.986389,0.163513,0.016235,-6.1e-05,0.0,-0.01,0.0,-0.31,3.16,9.27,23
6.399175,-0.32,3.14,9.26,-0.125,-0.25,0.25,2.25,78.5625,-10.1875,0.0,-1.8125,-18.8125,0.986389,0.163513,0.016235,-6.1e-05,0.0,-0.01,0.0,-0.31,3.16,9.27,23
6.410189,-0.31,3.14,9.27,-0.1875,-0.4375,0.1875,2.25,78.5625,-10.1875,0.0,-1.8125,-18.8125,0.986389,0.163513,0.016235,-6.1e-05,0.0,0.0,-0.01,-0.31,3.16,9.27,23
6.421203,-0.31,3.15,9.26,-0.1875,-0.4375,0.25,1.875,79.6875,-11.75,0.0,-1.8125,-18.8125,0.986389,0.163513,0.016235,-6.1e-05,0.0,0.0,0.01,-0.31,3.16,9.27,23
6.432217,-0.31,3.16,9.29,0.1875,-0.6875,0.25,1.875,79.6875,-11.75,0.0,-1.8125,-18.8125,0.986389,0.163513,0.016174,-6.1e-05,0.0,0.0,0.0,-0.31,3.16,9.27,23
6.443231,-0.32,3.16,9.26,0.0625,-0.25,0.3125,1.875,79.6875,-11.75,0.0,-1.8125,-18.8125,0.986389,0.163513,0.016174,-6.1e-05,0.0,0.0,-0.03,-0.31,3.16,9.27,23
6.454245,-0.32,3.16,9.24,0.0,-0.25,0.1875,1.875,79.6875,-11.75,0.0,-1.8125,-18.8125,0.986389,0.163513,0.016174,-6.1e-05,-0.01,-0.03,-0.02,-0.31,3.16,9.27,23
6.465259,-0.32,3.13,9.25,0.125,-0.1875,0.125,1.875,79.6875,-11.75,0.0,-1.8125,-18.8125,0.986389,0.163513,0.016174,-6.1e-05,0.0,-0.01,-0.01,-0.31,3.16,9.27,23
6.476273,-0.32,3.14,9.26,-0.0625,-0.25,0.125,2.25,79.6875,-10.5625,0.0,-1.8125,-18.8125,0.986389,0.163513,0.016174,-6.1e-05,0.0,0.0,-0.01,-0.31,3.16,9.27,23
6.487287,-0.33,3.15,9.28,-0.125,-0.375,0.125,2.25,79.6875,-10.5625,0.0,-1.8125,-18.8125,0.986389,0.163513,0.016174,-6.1e-05,-0.01,0.0,0.01,-0.31,3.16,9.27,23
6.498302,-0.32,3.15,9.25,-0.1875,-0.125,0.1875,2.25,79.6875,-10.5625,0.0,-1.8125,-18.8125,0.986389,0.163513,0.016174,-6.1e-05,-0.01,-0.02,0.0,-0.31,3.16,9.27,23
6.509316,-0.33,3.14,9.26,-0.0625,-0.25,0.3125,2.25,79.6875,-10.5625,0.0,-1.8125,-18.8125,0.986389,0.163513,0.016174,-6.1e-05,-0.02,0.0,0.0,-0.31,3.16,9.27,23
6.52033,-0.33,3.15,9.27,0.0,-0.125,0.25,2.25,79.6875,-10.5625,0.0,-1.8125,-18.8125,0.986389,0.163513,0.016174,-6.1e-05,-0.02,0.0,0.0,-0.31,3.16,9.27,23
6.531344,-0.32,3.16,9.25,0.0,-0.1875,0.3125,3.375,78.5625,-11.0,0.0,-1.8125,-18.8125,0.986389,0.163513,0.016174,-6.1e-05,0.0,0.01,0.01,-0.31,3.16,9.27,23
6.542358,-0.32,3.17,9.28,0.0,-0.1875,0.125,3.375,78.5625,-11.0,0.0,-1.8125,-18.8125,0.986389,0.163513,0.016174,-6.1e-05,0.0,0.0,0.02,-0.31,3.16,9.27,23
6.553372,-0.31,3.16,9.3,-0.0625,0.0,0.1875,3.375,78.5625,-11.0,0.0,-1.8125,-18.8125,0.986389,0.163513,0.016174,-6.1e-05,-0.01,0.0,-0.01,-0.31,3.16,9.27,23
6.564386,-0.32,3.16,9.25,-0.0625,-0.0625,0.1875,3.375,78.5625,-11.0,0.0,-1.8125,-18.8125,0.986389,0.163513,0.016174,-6.1e-05,0.0,0.0,0.0,-0.31,3.16,9.27,23
6.5754,-0.32,3.16,9.27,-0.25,-0.0625,0.1875,3.0,78.5625,-11.375,0.0,-1.8125,-18.8125,0.986389,0.163513,0.016174,-6.1e-05,-0.01,-0.01,0.0,-0.31,3.16,9.27,23
6.586414,-0.33,3.15,9.28,-0.25,-0.4375,0.1875,3.0,78.5625,-11.375,0.0,-1.8125,-18.8125,0.986389,0.163513,0.016174,-6.1e-05,-0.02,-0.01,0.01,-0.31,3.16,9.27,23
6.597428,-0.32,3.17,9.26,-0.0625,-0.1875,0.1875,3.0,78.5625,-11.375,0.0,-1.8125,-18.8125,0.986389,0.163513,0.016174,-6.1e-05,0.0,-0.02,0.01,-0.31,3.16,9.27,23
6.608442,-0.32,3.14,9.29,0.0,-0.125,0.3125,3.0,78.5625,-11.375,0.0,-1.8125,-18.8125,0.986389,0.163513,0.016174,-6.1e-05,0.0,0.0,0.01,-0.31,3.16,9.27,23
6.619456,-0.32,3.16,9.29,0.0625,-0.375,0.1875,3.0,78.5625,-11.375,0.0,-1.8125,-18.8125,0.986389,0.163513,0.016174,-6.1e-05,0.0,0.0,0.01,-0.31,3.16,9.27,23
6.63047,-0.32,3.16,9.24,0.0,-0.25,0.1875,1.5,78.1875,-11.0,0.0,-1.8125,-18.8125,0.986389,0.163513,0.016174,-6.1e-05,-0.01,0.0,0.0,-0.31,3.16,9.27,23
6.641484,-0.32,3.15,9.28,-0.0625,-0.25,0.1875,1.5,78.1875,-11.0,0.0,-1.8125,-18.8125,0.986389,0.163513,0.016174,-6.1e-05,-0.01,0.0,0.0,-0.31,3.16,9.27,23
6.652499,-0.33,3.15,9.28,0.0,-0.1875,0.25,1.5,78.1875,-11.0,0.0,-1.8125,-18.8125,0.986389,0.163513,0.016174,-6.1e-05,-0.01,0.0,0.01,-0.31,3.16,9.27,23
6.663513,-0.32,3.15,9.28,0.125,-0.125,0.1875,1.5,78.1875,-11.0,0.0,-1.8125,-18.8125,0.986389,0.163513,0.016174,-6.1e-05,0.0,0.0,0.01,-0.31,3.16,9.27,23
6.674527,-0.33,3.16,9.27,-0.125,-0.25,0.375,1.5,78.1875,-11.0,0.0,-1.8125,-18.8125,0.986389,0.163513,0.016174,-6.1e-05,0.0,0.02,0.0,-0.31,3.16,9.27,23
6.685541,-0.31,3.19,9.28,-0.125,-0.125,0.3125,1.5,78.1875,-11.0,0.0,-1.8125,-18.8125,0.986389,0.163513,0.016174,-6.1e-05,-0.01,0.0,-0.03,-0.31,3.16,9.27,23
6.696555,-0.33,3.15,9.24,-0.3125,-0.25,0.1875,1.5,78.1875,-11.0,0.0,-1.8125,-18.8125,0.986389,0.163513,0.016174,-6.1e-05,-0.02,0.01,-0.03,-0.31,3.16,9.27,23
6.707569,-0.33,3.17,9.24,-0.0625,-0.1875,0.3125,1.5,78.1875,-11.0,0.0,-1.8125,-18.8125,0.986389,0.163513,0.016174,-6.1e-05,-0.01,-0.01,0.01,-0.31,3.16,9.27,23
6.718583,-0.32,3.15,9.28,-0.125,-0.3125,0.25,2.5625,78.5625,-11.0,0.0,-1.8125,-18.8125,0.986389,0.163513,0.016174,-6.1e-05,0.0,0.0,0.01,-0.31,3.16,9.27,23
6.729597,-0.31,3.15,9.28,-0.25,-0.25,0.125,2.5625,78.5625,-11.0,0.0,-1.8125,-18.8125,0.986389,0.163513,0.016174,-6.1e-05,-0.01,0.0,0.0,-0.31,3.16,9.27,23
6.740611,-0.32,3.16,9.27,0.0,-0.25,0.125,2.5625,78.5625,-11.0,0.0,-1.8125,-18.8125,0.986389,0.163513,0.016174,-6.1e-05,0.0,0.0,-0.01,-0.31,3.16,9.27,23
6.751625,-0.31,3.16,9.26,0.0,-0.125,0.1875,2.5625,78.5625,-11.0,0.0,-1.8125,-18.8125,0.986389,0.163513,0.016174,-6.1e-05,-0.01,0.0,0.0,-0.31,3.16,9.27,23
6.762639,-0.33,3.15,9.27,0.0625,-0.1875,0.25,2.5625,78.5625,-11.0,0.0,-1.8125,-18.8125,0.986389,0.163513,0.016174,-6.1e-05,0.0,0.0,0.01,-0.31,3.16,9.27,23
6.773653,-0.32,3.16,9.28,0.125,-0.3125,0.125,3.0,77.5,-11.0,0.0,-1.8125,-18.8125,0.986389,0.163513,0.016174,-6.1e-05,-0.01,0.0,0.0,-0.31,3.16,9.27,23
6.784667,-0.32,3.16,9.25,-0.125,-0.4375,0.25,3.0,77.5,-11.0,0.0,-1.8125,-18.8125,0.986389,0.163513,0.016174,-6.1e-05,-0.01,0.0,-0.01,-0.31,3.16,9.27,23
6.795681,-0.33,3.15,9.25,0.0625,0.0625,0.0625,3.0,77.5,-11.0,0.0,-1.8125,-18.8125,0.986389,0.163513,0.016174,-6.1e-05,-0.01,-0.01,-0.01,-0.31,3.16,9.27,23
6.806696,-0.32,3.14,9.26,-0.0625,-0.25,0.1875,3.0,77.5,-11.0,0.0,-1.8125,-18.8125,0.986389,0.163513,0.016174,-6.1e-05,-0.01,0.0,0.0,-0.31,3.16,9.27,23
6.81771,-0.32,3.16,9.28,0.0,-0.375,0.0625,3.0,77.5,-11.0,0.0,-1.8125,-18.8125,0.986389,0.163513,0.016174,-6.1e-05,-0.01,0.0,0.0,-0.31,3.16,9.27,23
6.828724,-0.32,3.14,9.27,-0.125,0.0,0.1875,4.0625,79.25,-10.1875,0.0,-1.8125,-18.8125,0.986389,0.163513,0.016174,-6.1e-05,0.0,0.0,0.0,-0.31,3.16,9.27,23
6.839738,-0.31,3.16,9.27,-0.0625,-0.0625,0.1875,4.0625,79.25,-10.1875,0.0,-1.8125,-18.8125,0.986389,0.163513,0.016174,-6.1e-05,0.0,-0.01,-0.01,-0.31,3.16,9.27,23
6.850752,-0.31,3.14,9.25,-0.1875,-0.1875,0.1875,4.0625,79.25,-10.1875,0.0,-1.8125,-18.8125,0.986389,0.163513,0.016174,-6.1e-05,-0.02,0.0,0.01,-0.31,3.16,9.27,23
6.861766,-0.33,3.16,9.29,-0.1875,-0.375,0.3125,4.0625,79.25,-10.1875,0.0,-1.8125,-18.8125,0.986389,0.163513,0.016174,-6.1e-05,0.0,0.0,0.0,-0.31,3.16,9.27,23
6.87278,-0.32,3.16,9.28,0.0625,-0.375,0.1875,5.5625,77.0625,-15.75,0.0,-1.8125,-18.8125,0.986389,0.163513,0.016174,-6.1e-05,0.0,0.0,0.01,-0.31,3.16,9.27,23
6.883794,-0.32,3.16,9.28,-0.125,-0.0625,0.3125,5.5625,77.0625,-15.75,0.0,-1.8125,-18.8125,0.986389,0.163513,0.016174,-6.1e-05,0.0,0.0,-0.01,-0.31,3.16,9.27,23
6.894808,-0.32,3.16,9.25,-0.3125,-0.125,0.1875,5.5625,77.0625,-15.75,0.0,-1.8125,-18.8125,0.986389,0.163513,0.016174,-6.1e-05,-0.01,0.0,0.0,-0.31,3.16,9.27,23
6.905822,-0.32,3.15,9.28,-0.3125,0.0,0.1875,5.5625,77.0625,-15.75,0.0,-1.8125,-18.8125,0.986389,0.163513,0.016174,-6.1e-05,-0.01,-0.02,0.0,-0.31,3.16,9.27,23
6.916836,-0.32,3.14,9.28,-0.1875,0.0625,0.1875,5.5625,77.0625,-15.75,0.0,-1.8125,-18.8125,0.986389,0.163513,0.016174,-6.1e-05,-0.01,0.0,0.0,-0.31,3.16,9.27,23
6.92785,-0.33,3.15,9.27,0.0,-0.25,0.25,2.25,78.5625,-11.0,0.0,-1.8125,-18.8125,0.986389,0.163513,0.016174,-6.1e-05,0.0,0.0,0.03,-0.31,3.16,9.27,23
6.938864,-0.33,3.16,9.25,0.125,0.1875,0.25,2.25,78.5625,-11.0,0.0,-1.8125,-18.8125,0.986389,0.163513,0.016174,-6.1e-05,-0.01,0.0,-0.02,-0.31,3.16,9.27,23
6.949878,-0.32,3.16,9.26,0.0625,0.0,0.125,2.25,78.5625,-11.0,0.0,-1.8125,-18.8125,0.986389,0.163513,0.016174,-6.1e-05,-0.01,-0.01,0.0,-0.31,3.16,9.27,23
6.960893,-0.33,3.15,9.27,-0.25,-0.4375,0.1875,2.25,78.5625,-11.0,0.0,-1.8125,-18.8125,0.986389,0.163513,0.016174,-6.1e-05,0.0,-0.01,0.0,-0.31,3.16,9.27,23
6.971907,-0.31,3.14,9.27,-0.125,-0.0625,0.1875,2.25,78.5625,-11.0,0.0,-1.8125,-18.8125,0.986389,0.163513,0.016174,-6.1e-05,0.0,-0.01,0.0,-0.31,3.16,9.27,23
6.982921,-0.33,3.15,9.26,-0.0625,0.0625,0.25,3.0,78.5625,-10.5625,0.0,-1.8125,-18.8125,0.986389,0.163513,0.016174,-6.1e-05,0.0,0.0,0.0,-0.31,3.16,9.27,23
6.993935,-0.32,3.15,9.27,-0.125,-0.0625,0.125,3.0,78.5625,-10.5625,0.0,-1.8125,-18.8125,0.986389,0.163513,0.016174,-6.1e-05,-0.01,0.0,-0.02,-0.31,3.16,9.27,23
7.004949,-0.32,3.15,9.25,-0.375,-0.125,0.125,3.0,78.5625,-10.5625,0.0,-1.8125,-18.8125,0.986389,0.163513,0.016174,-6.1e-05,-0.01,-0.01,0.0,-0.31,3.16,9.27,23
7.015963,-0.32,3.15,9.28,-0.1875,-0.3125,0.25,3.0,78.5625,-10.5625,0.0,-1.8125,-18.8125,0.986389,0.163513,0.016174,-6.1e-05,0.0,-0.01,0.03,-0.31,3.16,9.27,23
7.026977,-0.32,3.15,9.31,-0.125,-0.1875,0.125,2.25,78.25,-10.5625,0.0,-1.8125,-18.8125,0.986389,0.163513,0.016174,-6.1e-05,-0.01,-0.01,0.01,-0.31,3.16,9.27,23
7.037991,-0.32,3.15,9.25,0.125,-0.25,0.3125,2.25,78.25,-10.5625,0.0,-1.8125,-18.8125,0.986389,0.163513,0.016174,-6.1e-05,0.0,0.0,-0.02,-0.31,3.16,9.27,23
7.049005,-0.32,3.16,9.29,0.0,0.0625,0.25,2.25,78.25,-10.5625,0.0,-1.8125,-18.8125,0.986389,0.163513,0.016174,-6.1e-05,0.0,0.0,0.01,-0.31,3.16,9.27,23
7.060019,-0.33,3.16,9.27,0.0625,-0.0625,0.375,2.25,78.25,-10.5625,0.0,-1.8125,-18.8125,0.986389,0.163513,0.016174,-6.1e-05,-0.01,-0.01,0.01,-0.31,3.16,9.27,23
7.071033,-0.32,3.15,9.29,0.0,0.0,0.3125,2.25,78.25,-10.5625,0.0,-1.8125,-18.8125,0.986389,0.163513,0.016174,-6.1e-05,-0.01,-0.01,0.01,-0.31,3.16,9.27,23
7.082047,-0.32,3.16,9.28,-0.125,-0.125,0.25,2.5625,78.5625,-11.375,0.0,-1.8125,-18.8125,0.986389,0.163513,0.016174,-6.1e-05,0.0,-0.02,0.0,-0.31,3.16,9.27,23
7.093061,-0.31,3.14,9.27,-0.0625,-0.1875,0.25,2.5625,78.5625,-11.375,0.0,-1.8125,-18.8125,0.986389,0.163513,0.016174,-6.1e-05,-0.01,0.0,-0.01,-0.31,3.16,9.27,23
7.104075,-0.32,3.17,9.25,-0.125,-0.1875,0.125,2.5625,78.5625,-11.375,0.0,-1.8125,-18.8125,0.986389,0.163513,0.016174,-6.1e-05,0.0,0.01,-0.02,-0.31,3.16,9.27,23
7.115089,-0.33,3.15,9.27,-0.1875,-0.1875,0.1875,2.5625,78.5625,-11.375,0.0,-1.8125,-18.8125,0.986389,0.163513,0.016174,-6.1e-05,-0.01,-0.01,0.0,-0.31,3.16,9.27,23
7.126104,-0.32,3.16,9.26,0.0625,0.0,0.1875,5.5625,76.375,-14.875,0.0,-1.8125,-18.8125,0.986389,0.163513,0.016174,-6.1e-05,0.0,0.0,0.0,-0.31,3.16,9.27,23
7.137118,-0.31,3.16,9.28,-0.0625,0.0625,0.1875,5.5625,76.375,-14.875,0.0,-1.8125,-18.8125,0.986389,0.163513,0.016174,-6.1e-05,-0.01,0.0,-0.01,-0.31,3.16,9.27,23
7.148132,-0.33,3.16,9.26,-0.25,-0.25,0.1875,5.5625,76.375,-14.875,0.0,-1.8125,-18.8125,0.986389,0.163513,0.016174,-6.1e-05,-0.01,-0.01,-0.01,-0.31,3.16,9.27,23
7.159146,-0.32,3.15,9.28,-0.1875,0.0625,0.25,5.5625,76.375,-14.875,0.0,-1.8125,-18.8125,0.986389,0.163513,0.016174,-6.1e-05,-0.01,0.0,0.0,-0.31,3.16,9.27,23
7.17016,-0.32,3.14,9.26,-0.4375,-0.5,0.0625,4.875,78.25,-15.75,0.0,-1.8125,-18.8125,0.986389,0.163513,0.016174,-6.1e-05,-0.01,0.0,0.01,-0.31,3.16,9.27,23
7.181174,-0.32,3.16,9.29,-0.1875,-0.25,0.1875,4.875,78.25,-15.75,0.0,-1.8125,-18.8125,0.986389,0.163513,0.016174,-6.1e-05,-0.01,0.0,0.0,-0.31,3.16,9.27,23
7.192188,-0.32,3.16,9.27,-0.25,-0.4375,0.125,4.875,78.25,-15.75,0.0,-1.8125,-18.8125,0.986389,0.163513,0.016174,-6.1e-05,0.0,0.0,0.01,-0.31,3.16,9.27,23
7.203202,-0.32,3.16,9.29,-0.125,-0.3125,0.1875,4.875,78.25,-15.75,0.0,-1.8125,-18.8125,0.986389,0.163513,0.016174,-6.1e-05,0.0,-0.01,0.0,-0.31,3.16,9.27,23
7.214216,-0.31,3.14,9.27,-0.125,-0.125,0.1875,4.875,78.25,-15.75,0.0,-1.8125,-18.8125,0.986389,0.163513,0.016174,-6.1e-05,0.0,-0.01,0.0,-0.31,3.16,9.27,23
7.22523,-0.32,3.14,9.26,-0.0625,-0.375,0.125,5.25,77.5,-15.75,0.0,-1.8125,-18.8125,0.986389,0.163513,0.016174,-6.1e-05,0.0,-0.01,0.02,-0.31,3.16,9.27,23
7.236244,-0.31,3.14,9.29,-0.0625,-0.3125,0.0625,5.25,77.5,-15.75,0.0,-1.8125,-18.8125,0.986389,0.163513,0.016174,-6.1e-05,0.0,-0.01,0.0,-0.31,3.16,9.27,23
7.247258,-0.32,3.15,9.26,-0.25,-0.125,0.25,5.25,77.5,-15.75,0.0,-1.8125,-18.8125,0.986389,0.163513,0.016174,-6.1e-05,0.0,0.0,-0.02,-0.31,3.16,9.27,23
7.258272,-0.32,3.16,9.25,-0.0625,-0.25,0.1875,5.25,77.5,-15.75,0.0,-1.8125,-18.8125,0.986389,0.163513,0.016174,-6.1e-05,0.0,-0.01,0.0,-0.31,3.16,9.27,23
7.269286,-0.32,3.14,9.26,-0.125,-0.25,0.25,7.5,76.75,-14.875,0.0,-1.8125,-18.8125,0.986389,0.163513,0.016174,-6.1e-05,0.0,0.0,0.02,-0.31,3.16,9.27,23
7.280301,-0.32,3.15,9.28,0.0,-0.3125,0.1875,7.5,76.75,-14.875,0.0,-1.8125,-18.8125,0.986389,0.163513,0.016174,-6.1e-05,-0.01,-0.01,0.01,-0.31,3.16,9.27,23
7.291315,-0.33,3.17,9.25,-0.0625,-0.375,0.25,7.5,76.75,-14.875,0.0,-1.8125,-18.8125,0.986389,0.163513,0.016174,-6.1e-05,0.0,0.01,0.0,-0.31,3.16,9.27,23
7.302329,-0.32,3.17,9.26,-0.3125,-0.3125,0.25,7.5,76.75,-14.875,0.0,-1.8125,-18.8125,0.986389,0.163513,0.016174,-6.1e-05,0.0,0.0,0.0,-0.31,3.16,9.27,23
7.313343,-0.32,3.16,9.27,0.0625,-0.25,0.25,7.5,76.75,-14.875,0.0,-1.8125,-18.8125,0.986389,0.163513,0.016174,-6.1e-05,0.0,0.0,0.0,-0.31,3.16,9.27,23
7.324357,-0.32,3.16,9.27,-0.125,-0.25,0.25,5.5625,77.0625,-16.0625,0.0,-1.8125,-18.8125,0.986389,0.163513,0.016174,-6.1e-05,0.0,0.01,-0.03,-0.31,3.16,9.27,23
7.335371,-0.31,3.17,9.24,-0.125,-0.375,0.1875,5.5625,77.0625,-16.0625,0.0,-1.8125,-18.8125,0.986389,0.163513,0.016174,-6.1e-05,0.0,0.01,-0.02,-0.31,3.16,9.27,23
7.346385,-0.32,3.17,9.25,-0.0625,0.0,0.1875,5.5625,77.0625,-16.0625,0.0,-1.8125,-18.8125,0.986389,0.163513,0.016174,-6.1e-05,0.0,0.0,0.0,-0.31,3.16,9.27,23
7.357399,-0.31,3.16,9.26,-0.1875,0.0,0.3125,5.5625,77.0625,-16.0625,0.0,-1.8125,-18.8125,0.986389,0.163513,0.016174,-6.1e-05,-0.01,-0.01,0.0,-0.31,3.16,9.27,23
7.368413,-0.33,3.15,9.26,-0.1875,-0.25,0.1875,2.25,78.25,-11.375,0.0,-1.8125,-18.8125,0.986389,0.163513,0.016174,-6.1e-05,0.0,-0.01,0.02,-0.31,3.16,9.27,23
7.379427,-0.31,3.15,9.29,-0.1875,-0.125,0.25,2.25,78.25,-11.375,0.0,-1.8125,-18.8125,0.986389,0.163513,0.016174,-6.1e-05,-0.01,0.0,0.02,-0.31,3.16,9.27,23
7.390441,-0.32,3.16,9.29,-0.0625,-0.4375,0.1875,2.25,78.25,-11.375,0.0,-1.8125,-18.8125,0.986389,0.163513,0.016174,-6.1e-05,-0.01,0.0,0.0,-0.31,3.16,9.27,23
7.401455,-0.32,3.15,9.27,-0.1875,-0.5,0.25,2.25,78.25,-11.375,0.0,-1.8125,-18.8125,0.986389,0.163513,0.016174,-6.1e-05,0.0,0.0,0.0,-0.31,3.16,9.27,23
7.412469,-0.32,3.15,9.27,0.0625,0.0625,0.1875,2.25,78.25,-11.375,0.0,-1.8125,-18.8125,0.986389,0.163513,0.016174,-6.1e-05,-0.01,0.0,0.0,-0.31,3.16,9.27,23
7.423483,-0.32,3.16,9.26,-0.125,-0.3125,0.1875,2.25,78.875,-11.75,0.0,-1.8125,-18.8125,0.986389,0.163513,0.016174,-6.1e-05,-0.01,0.0,0.0,-0.31,3.16,9.27,23
7.434498,-0.32,3.16,9.27,-0.25,-0.125,0.25,2.25,78.875,-11.75,0.0,-1.8125,-18.8125,0.986389,0.163513,0.016174,-6.1e-05,-0.01,0.0,0.0,-0.31,3.16,9.27,23
7.445512,-0.33,3.14,9.26,0.125,-0.0625,0.25,2.25,78.875,-11.75,0.0,-1.8125,-18.8125,0.986389,0.163513,0.016174,-6.1e-05,-0.01,-0.01,0.0,-0.31,3.16,9.27,23
7.456526,-0.32,3.15,9.28,0.0625,-0.125,0.25,2.25,78.875,-11.75,0.0,-1.8125,-18.8125,0.986389,0.163513,0.016174,-6.1e-05,-0.01,0.0,0.0,-0.31,3.16,9.27,23
7.46754,-0.31,3.15,9.25,-0.25,-0.1875,0.3125,4.5,77.875,-16.5,0.0,-1.8125,-18.8125,0.986389,0.163513,0.016174,-6.1e-05,-0.01,0.0,0.01,-0.31,3.16,9.27,23
7.478554,-0.33,3.16,9.28,-0.3125,-0.125,0.25,4.5,77.875,-16.5,0.0,-1.8125,-18.8125,0.986389,0.163513,0.016174,-6.1e-05,-0.01,-0.01,-0.02,-0.31,3.16,9.27,23
7.489568,-0.33,3.14,9.25,-0.1875,-0.125,0.125,4.5,77.875,-16.5,0.0,-1.8125,-18.8125,0.986389,0.163513,0.016174,-6.1e-05,0.0,-0.01,0.0,-0.31,3.16,9.27,23
7.500582,-0.32,3.15,9.26,-0.0625,-0.375,0.1875,4.5,77.875,-16.5,0.0,-1.8125,-18.8125,0.986389,0.163513,0.016174,-6.1e-05,0.0,0.0,0.0,-0.31,3.16,9.27,23
7.511596,-0.31,3.16,9.28,-0.0625,-0.25,0.0625,4.5,77.875,-16.5,0.0,-1.8125,-18.8125,0.986389,0.163513,0.016174,-6.1e-05,0.0,0.0,0.0,-0.31,3.16,9.27,23
7.52261,-0.32,3.13,9.25,0.0,-0.1875,0.25,6.0,76.75,-15.75,0.0,-1.8125,-18.8125,0.986389,0.163513,0.016174,-6.1e-05,-0.01,0.0,-0.02,-0.31,3.16,9.27,23
7.533624,-0.32,3.16,9.25,0.125,-0.3125,0.125,6.0,76.75,-15.75,0.0,-1.8125,-18.8125,0.986389,0.163513,0.016174,-6.1e-05,-0.01,0.0,-0.03,-0.31,3.16,9.27,23
7.544638,-0.32,3.16,9.24,-0.125,0.0625,0.25,6.0,76.75,-15.75,0.0,-1.8125,-18.8125,0.986389,0.163513,0.016174,-6.1e-05,0.0,0.0,-0.01,-0.31,3.16,9.27,23
7.555652,-0.32,3.16,9.26,0.0,-0.1875,0.25,6.0,76.75,-15.75,0.0,-1.8125,-18.8125,0.986389,0.163513,0.016174,-6.1e-05,-0.01,0.0,0.0,-0.31,3.16,9.27,23
7.566666,-0.32,3.16,9.27,0.0,-0.1875,0.125,2.5625,78.5625,-10.1875,0.0,-1.8125,-18.8125,0.986389,0.163513,0.016174,-6.1e-05,-0.01,0.02,0.0,-0.31,3.16,9.27,23
7.57768,-0.33,3.19,9.28,-0.3125,-0.25,0.3125,2.5625,78.5625,-10.1875,0.0,-1.8125,-18.8125,0.986389,0.163513,0.016174,-6.1e-05,0.0,0.0,0.0,-0.31,3.16,9.27,23
7.588695,-0.31,3.16,9.28,-0.1875,-0.25,0.25,2.5625,78.5625,-10.1875,0.0,-1.8125,-18.8125,0.986389,0.163513,0.016174,-6.1e-05,0.0,-0.01,-0.02,-0.31,3.16,9.27,23
7.599709,-0.31,3.15,9.25,-0.1875,-0.1875,0.1875,2.5625,78.5625,-10.1875,0.0,-1.8125,-18.8125,0.986389,0.163513,0.016174,-6.1e-05,-0.01,-0.01,0.01,-0.31,3.16,9.27,23
7.610723,-0.32,3.15,9.29,-0.125,-0.125,0.25,2.5625,78.5625,-10.1875,0.0,-1.8125,-18.8125,0.986389,0.163513,0.016174,-6.1e-05,-0.01,-0.01,0.03,-0.31,3.16,9.27,23
7.621737,-0.33,3.15,9.31,-0.1875,-0.625,0.25,3.75,78.875,-10.5625,0.0,-1.8125,-18.8125,0.986389,0.163513,0.016113,-6.1e-05,-0.01,0.0,-0.01,-0.31,3.16,9.27,23
7.632751,-0.32,3.15,9.26,-0.0625,-0.625,0.1875,3.75,78.875,-10.5625,0.0,-1.8125,-18.8125,0.986389,0.163513,0.016052,-6.1e-05,-0.01,-0.01,0.0,-0.31,3.16,9.27,23
7.643765,-0.32,3.16,9.27,-0.125,-0.375,0.0,3.75,78.875,-10.5625,0.0,-1.8125,-18.8125,0.986389,0.163513,0.016052,-6.1e-05,-0.01,-0.01,0.01,-0.31,3.16,9.27,23
7.654779,-0.32,3.15,9.28,-0.0625,-0.4375,0.25,3.75,78.875,-10.5625,0.0,-1.8125,-18.8125,0.986389,0.163513,0.016052,-6.1e-05,-0.01,-0.01,0.02,-0.31,3.16,9.27,23
7.665793,-0.33,3.14,9.3,-0.0625,-0.25,0.25,3.75,78.875,-10.5625,0.0,-1.8125,-18.8125,0.986389,0.163513,0.016052,-6.1e-05,-0.01,-0.01,0.02,-0.31,3.16,9.27,23
7.676807,-0.31,3.15,9.26,-0.125,-0.25,0.25,0.375,77.5,-10.5625,0.0,-1.8125,-18.8125,0.986389,0.163513,0.016052,-6.1e-05,-0.01,0.0,0.01,-0.31,3.16,9.27,23
7.687821,-0.32,3.16,9.29,-0.1875,-0.125,0.0625,0.375,77.5,-10.5625,0.0,-1.8125,-18.8125,0.986389,0.163513,0.016052,-6.1e-05,0.0,-0.02,-0.01,-0.31,3.16,9.27,23
7.698835,-0.31,3.13,9.26,-0.125,-0.3125,0.375,0.375,77.5,-10.5625,0.0,-1.8125,-18.8125,0.986389,0.163513,0.016052,-6.1e-05,-0.01,0.0,0.0,-0.31,3.16,9.27,23
7.709849,-0.32,3.16,9.27,-0.0625,-0.1875,0.1875,0.375,77.5,-10.5625,0.0,-1.8125,-18.8125,0.986389,0.163513,0.016052,-6.1e-05,-0.01,0.0,0.0,-0.31,3.16,9.27,23
7.720863,-0.32,3.16,9.29,-0.0625,-0.3125,0.1875,1.875,79.0,-11.75,0.0,-1.8125,-18.8125,0.986389,0.163513,0.016052,-6.1e-05,-0.01,0.0,0.0,-0.31,3.16,9.27,23
7.731877,-0.32,3.15,9.27,-0.3125,-0.5,0.125,1.875,79.0,-11.75,0.0,-1.8125,-18.8125,0.986389,0.163513,0.016052,-6.1e-05,-0.01,-0.02,0.0,-0.31,3.16,9.27,23
7.742892,-0.32,3.14,9.27,-0.3125,-0.0625,0.3125,1.875,79.0,-11.75,0.0,-1.8125,-18.8125,0.986389,0.163513,0.016052,-6.1e-05,-0.01,0.02,-0.01,-0.31,3.16,9.27,23
7.753906,-0.32,3.18,9.25,-0.0625,-0.1875,0.1875,1.875,79.0,-11.75,0.0,-1.8125,-18.8125,0.986389,0.163513,0.016052,-6.1e-05,0.0,0.02,0.0,-0.31,3.16,9.27,23
7.76492,-0.31,3.18,9.26,-0.0625,-0.25,0.1875,1.875,79.0,-11.75,0.0,-1.8125,-18.8125,0.986389,0.163513,0.016052,-6.1e-05,0.0,0.02,0.0,-0.31,3.16,9.27,23
7.775934,-0.31,3.18,9.26,0.1875,0.0,0.375,0.75,79.25,-9.75,0.0,-1.8125,-18.8125,0.986389,0.163513,0.016052,-6.1e-05,-0.01,0.0,0.0,-0.31,3.16,9.27,23
7.786948,-0.32,3.16,9.28,-0.1875,-0.375,0.0625,0.75,79.25,-9.75,0.0,-1.8125,-18.8125,0.986389,0.163513,0.016052,-6.1e-05,0.0,0.0,-0.01,-0.31,3.16,9.27,23
7.797962,-0.31,3.15,9.25,0.0625,-0.3125,0.1875,0.75,79.25,-9.75,0.0,-1.8125,-18.8125,0.986389,0.163513,0.016052,-6.1e-05,0.0,-0.01,0.0,-0.31,3.16,9.27,23
7.808976,-0.31,3.14,9.28,-0.0625,-0.375,0.125,0.75,79.25,-9.75,0.0,-1.8125,-18.8125,0.986389,0.163513,0.016052,-6.1e-05,-0.01,-0.02,0.0,-0.31,3.16,9.27,23
7.81999,-0.33,3.13,9.27,-0.1875,-0.5,0.25,2.5625,78.25,-10.5625,0.0,-1.8125,-18.8125,0.986389,0.163513,0.016052,-6.1e-05,-0.01,0.0,-0.01,-0.31,3.16,9.27,23
7.831004,-0.31,3.17,9.29,-0.1875,0.125,0.125,2.5625,78.25,-10.5625,0.0,-1.8125,-18.8125,0.986389,0.163513,0.016052,-6.1e-05,0.0,0.01,0.01,-0.31,3.16,9.27,23
7.842018,-0.33,3.14,9.28,-0.125,-0.5625,0.3125,2.5625,78.25,-10.5625,0.0,-1.8125,-18.8125,0.986389,0.163513,0.016052,-6.1e-05,-0.01,0.01,0.0,-0.31,3.16,9.27,23
7.853032,-0.32,3.17,9.27,-0.3125,-0.3125,0.1875,2.5625,78.25,-10.5625,0.0,-1.75,-18.8125,0.986389,0.163513,0.015991,-0.000122,-0.01,0.0,0.0,-0.3,3.16,9.27,23
7.864046,-0.32,3.16,9.27,0.0,-0.375,0.125,2.5625,77.5,-10.1875,0.0,-1.75,-18.8125,0.986389,0.163513,0.015991,-0.000122,-0.02,0.0,-0.01,-0.3,3.16,9.27,23
7.87506,-0.33,3.16,9.26,-0.1875,-0.4375,0.125,2.5625,77.5,-10.1875,0.0,-1.75,-18.8125,0.986389,0.163513,0.015991,-0.000122,-0.01,0.0,0.0,-0.3,3.16,9.27,23
7.886074,-0.32,3.15,9.26,-0.25,-0.0625,0.125,2.5625,77.5,-10.1875,0.0,-1.75,-18.8125,0.986389,0.163513,0.015991,-0.000122,-0.01,0.0,-0.01,-0.3,3.16,9.27,23
7.897088,-0.32,3.15,9.26,-0.0625,-0.1875,0.0625,2.5625,77.5,-10.1875,0.0,-1.75,-18.8125,0.986389,0.163513,0.015991,-0.000122,-0.01,0.0,0.0,-0.3,3.16,9.27,23
7.908103,-0.32,3.15,9.27,0.0625,-0.3125,0.3125,2.5625,77.5,-10.1875,0.0,-1.75,-18.8125,0.986389,0.163513,0.015991,-0.000122,-0.01,-0.01,0.02,-0.3,3.16,9.27,23
7.919117,-0.32,3.14,9.3,0.0,-0.4375,0.125,1.5,78.5625,-9.75,0.0,-1.75,-18.8125,0.986389,0.163513,0.015991,-0.000122,-0.01,0.0,0.01,-0.3,3.16,9.27,23
7.930131,-0.32,3.15,9.28,-0.125,-0.25,0.125,1.5,78.5625,-9.75,0.0,-1.75,-18.8125,0.986389,0.163513,0.015991,-0.000122,-0.01,0.0,-0.01,-0.3,3.16,9.27,23
7.941145,-0.32,3.16,9.26,-0.0625,-0.375,0.25,1.5,78.5625,-9.75,0.0,-1.75,-18.8125,0.986389,0.163513,0.015991,-0.000122,-0.02,0.0,-0.01,-0.3,3.16,9.27,23
7.952159,-0.33,3.16,9.25,-0.25,-0.25,0.125,1.5,78.5625,-9.75,0.0,-1.75,-18.8125,0.986389,0.163513,0.015991,-0.000122,-0.01,0.0,0.0,-0.3,3.16,9.27,23
7.963173,-0.32,3.15,9.27,-0.4375,-0.1875,0.1875,1.5,78.5625,-9.75,0.0,-1.75,-18.8125,0.986389,0.163513,0.015991,-0.000122,0.0,0.0,0.0,-0.3,3.16,9.27,23
7.974187,-0.31,3.16,9.28,0.0,-0.375,0.25,3.0,79.25,-9.75,0.0,-1.75,-18.8125,0.986389,0.163513,0.015991,-0.000122,-0.02,0.0,0.0,-0.3,3.16,9.27,23
7.985201,-0.32,3.13,9.28,-0.125,-0.25,0.3125,3.0,79.25,-9.75,0.0,-1.75,-18.8125,0.986389,0.163513,0.015991,-0.000122,-0.01,-0.03,0.01,-0.3,3.16,9.27,23
7.996215,-0.31,3.16,9.25,-0.125,-0.3125,0.1875,3.0,79.25,-9.75,0.0,-1.75,-18.8125,0.986389,0.163513,0.015991,-0.000122,-0.01,-0.02,-0.01,-0.3,3.16,9.27,23
8.007229,-0.32,3.14,9.26,0.0,-0.25,0.1875,3.0,79.25,-9.75,0.0,-1.75,-18.8125,0.986389,0.163513,0.015991,-0.000122,-0.02,0.0,0.0,-0.3,3.16,9.27,23
8.018243,-0.33,3.16,9.27,0.0,-0.125,0.25,3.0,79.25,-9.75,0.0,-1.75,-18.8125,0.986389,0.163513,0.015991,-0.000122,-0.02,0.0,0.0,-0.3,3.16,9.27,23
8.029257,-0.32,3.14,9.26,-0.1875,-0.25,0.25,1.875,78.25,-10.1875,0.0,-1.75,-18.8125,0.986389,0.163513,0.015991,-0.000122,-0.01,-0.02,0.02,-0.3,3.16,9.27,23
8.040271,-0.32,3.14,9.3,-0.3125,-0.375,0.125,1.875,78.25,-10.1875,0.0,-1.75,-18.8125,0.986389,0.163513,0.015991,-0.000122,-0.02,0.0,0.0,-0.3,3.16,9.27,23
8.051285,-0.33,3.16,9.26,-0.125,-0.5,0.125,1.875,78.25,-10.1875,0.0,-1.75,-18.8125,0.986389,0.163513,0.015991,-0.000122,-0.01,0.0,0.0,-0.3,3.16,9.27,23
8.0623,-0.32,3.15,9.27,-0.1875,-0.3125,0.3125,1.875,78.25,-10.1875,0.0,-1.75,-18.8125,0.986389,0.163513,0.015991,-0.000122,-0.02,-0.01,0.0,-0.3,3.16,9.27,23
8.073314,-0.33,3.15,9.27,-0.1875,-0.125,0.3125,2.25,78.25,-15.25,0.0,-1.75,-18.8125,0.986389,0.163513,0.015991,-0.000122,0.0,-0.01,-0.01,-0.3,3.16,9.27,23
8.084328,-0.31,3.15,9.25,0.0,-0.1875,0.25,2.25,78.25,-15.25,0.0,-1.75,-18.8125,0.986389,0.163513,0.015991,-0.000122,-0.01,0.0,0.0,-0.3,3.16,9.27,23
8.095342,-0.32,3.16,9.27,-0.1875,-0.125,0.1875,2.25,78.25,-15.25,0.0,-1.75,-18.8125,0.986389,0.163513,0.015991,-0.000122,0.0,0.0,-0.04,-0.3,3.16,9.27,23
8.106356,-0.31,3.16,9.23,-0.3125,-0.25,0.25,2.25,78.25,-15.25,0.0,-1.75,-18.8125,0.986389,0.163513,0.015991,-0.000122,-0.01,-0.01,-0.02,-0.3,3.16,9.27,23
8.11737,-0.32,3.15,9.25,0.125,-0.1875,0.25,2.25,78.25,-15.25,0.0,-1.75,-18.8125,0.986389,0.163513,0.015991,-0.000122,-0.01,-0.01,-0.03,-0.3,3.16,9.27,23
8.128384,-0.32,3.15,9.24,0.0,-0.25,0.25,2.5625,78.25,-10.1875,0.0,-1.75,-18.8125,0.986389,0.163513,0.015991,-0.000122,0.0,0.01,0.0,-0.3,3.16,9.27,23
8.139398,-0.31,3.16,9.27,-0.1875,-0.375,0.25,2.5625,78.25,-10.1875,0.0,-1.75,-18.8125,0.986389,0.163513,0.015991,-0.000122,0.0,0.0,0.0,-0.3,3.16,9.27,23
8.150412,-0.31,3.15,9.25,0.0,-0.3125,0.125,2.5625,78.25,-10.1875,0.0,-1.75,-18.8125,0.986389,0.163513,0.015991,-0.000122,0.0,0.0,0.0,-0.3,3.16,9.27,23
8.161426,-0.31,3.15,9.27,0.0,-0.125,0.125,2.5625,78.25,-10.1875,0.0,-1.75,-18.8125,0.986389,0.163513,0.015991,-0.000122,-0.02,0.0,-0.01,-0.3,3.16,9.27,23
8.17244,-0.33,3.16,9.26,-0.1875,-0.25,0.3125,2.5625,78.25,-10.1875,0.0,-1.75,-18.8125,0.986389,0.163513,0.015991,-0.000122,-0.02,0.0,-0.01,-0.3,3.16,9.27,23
8.183454,-0.33,3.16,9.26,-0.1875,-0.4375,0.4375,3.75,79.25,-10.5625,0.0,-1.75,-18.8125,0.986389,0.163513,0.015991,-0.000122,-0.01,-0.02,0.0,-0.3,3.16,9.27,23
8.194468,-0.32,3.14,9.27,-0.1875,0.0,0.25,3.75,79.25,-10.5625,0.0,-1.75,-18.8125,0.986389,0.163513,0.015991,-0.000122,-0.01,0.0,-0.02,-0.3,3.16,9.27,23
8.205482,-0.32,3.16,9.25,0.0625,-0.25,0.125,3.75,79.25,-10.5625,0.0,-1.75,-18.8125,0.986389,0.163513,0.015991,-0.000122,-0.02,0.0,0.0,-0.3,3.16,9.27,23
8.216497,-0.33,3.15,9.27,-0.0625,-0.0625,0.1875,3.75,79.25,-10.5625,0.0,-1.75,-18.8125,0.986389,0.163513,0.015991,-0.000122,-0.01,0.0,-0.02,-0.3,3.16,9.27,23
8.227511,-0.32,3.16,9.25,-0.1875,-0.375,0.1875,1.0625,79.25,-11.0,0.0,-1.75,-18.8125,0.986389,0.163513,0.015991,-0.000122,-0.01,0.0,0.01,-0.3,3.16,9.27,23
8.238525,-0.32,3.15,9.28,-0.1875,-0.75,0.25,1.0625,79.25,-11.0,0.0,-1.75,-18.8125,0.986389,0.163513,0.01593,-0.000122,0.0,-0.01,0.0,-0.3,3.16,9.27,23
8.249539,-0.31,3.15,9.28,-0.1875,-0.5,0.1875,1.0625,79.25,-11.0,0.0,-1.75,-18.8125,0.986389,0.163513,0.01593,-0.000122,0.0,0.0,-0.04,-0.3,3.16,9.27,23
8.260553,-0.31,3.16,9.23,0.0625,-0.375,0.25,1.0625,79.25,-11.0,0.0,-1.75,-18.8125,0.986389,0.163513,0.01593,-0.000122,-0.02,0.0,-0.02,-0.3,3.16,9.27,23
8.271567,-0.32,3.16,9.26,0.1875,0.1875,0.25,1.0625,79.25,-11.0,0.0,-1.75,-18.8125,0.986389,0.163513,0.01593,-0.000122,-0.01,0.0,-0.01,-0.3,3.16,9.27,23
8.282581,-0.31,3.16,9.29,-0.125,-0.4375,0.3125,3.0,78.5625,-11.375,0.0,-1.75,-18.8125,0.986389,0.163513,0.01593,-0.000122,0.0,0.0,0.02,-0.3,3.16,9.27,23
8.293595,-0.32,3.17,9.27,-0.1875,-0.375,0.1875,3.0,78.5625,-11.375,0.0,-1.75,-18.8125,0.986389,0.163513,0.01593,-0.000122,-0.01,0.0,0.0,-0.3,3.16,9.27,23
8.304609,-0.32,3.16,9.26,-0.0625,-0.25,0.25,3.0,78.5625,-11.375,0.0,-1.75,-18.8125,0.986389,0.163513,0.01593,-0.000122,-0.02,-0.01,0.0,-0.3,3.16,9.27,23
8.315623,-0.33,3.15,9.27,-0.0625,-0.0625,0.125,3.0,78.5625,-11.375,0.0,-1.75,-18.8125,0.986389,0.163513,0.01593,-0.000122,0.0,0.0,0.01,-0.3,3.16,9.27,23
8.326637,-0.31,3.15,9.29,-0.125,-0.25,0.1875,3.0,78.5625,-11.375,0.0,-1.75,-18.8125,0.986389,0.163513,0.01593,-0.000122,0.0,0.0,0.01,-0.3,3.16,9.27,23
8.337651,-0.31,3.17,9.29,-0.0625,-0.3125,0.25,2.25,78.5625,-11.75,0.0,-1.75,-18.8125,0.986389,0.163513,0.01593,-0.000122,-0.01,-0.01,0.0,-0.3,3.16,9.27,23
8.348665,-0.32,3.15,9.27,-0.1875,-0.375,0.125,2.25,78.5625,-11.75,0.0,-1.75,-18.8125,0.986389,0.163513,0.01593,-0.000122,-0.01,-0.02,0.01,-0.3,3.16,9.27,23
8.359679,-0.32,3.14,9.29,-0.25,-0.3125,0.3125,2.25,78.5625,-11.75,0.0,-1.75,-18.8125,0.986389,0.163513,0.01593,-0.000122,0.0,0.0,-0.01,-0.3,3.16,9.27,23
8.370694,-0.31,3.15,9.25,-0.25,-0.1875,0.25,2.25,78.5625,-11.75,0.0,-1.75,-18.8125,0.986389,0.163513,0.01593,-0.000122,0.0,-0.01,0.0,-0.3,3.16,9.27,23
8.381708,-0.31,3.15,9.28,-0.1875,-0.125,0.125,6.75,77.875,-14.5625,0.0,-1.75,-18.8125,0.986389,0.163513,0.01593,-0.000122,-0.01,0.0,0.0,-0.3,3.16,9.27,23
8.392722,-0.32,3.15,9.28,-0.3125,-0.25,0.1875,6.75,77.875,-14.5625,0.0,-1.75,-18.8125,0.986389,0.163513,0.01593,-0.000122,-0.01,-0.01,0.0,-0.3,3.16,9.27,23
8.403736,-0.32,3.13,9.27,-0.1875,-0.125,0.3125,6.75,77.875,-14.5625,0.0,-1.75,-18.8125,0.986389,0.163513,0.01593,-0.000122,-0.01,-0.01,-0.01,-0.3,3.16,9.27,23
8.41475,-0.32,3.14,9.26,-0.25,-0.3125,0.0625,6.75,77.875,-14.5625,0.0,-1.75,-18.8125,0.986389,0.163513,0.01593,-0.000122,-0.01,0.0,0.02,-0.3,3.16,9.27,23
8.425764,-0.32,3.16,9.29,-0.0625,-0.375,0.1875,6.75,77.875,-14.5625,0.0,-1.75,-18.8125,0.986389,0.163513,0.01593,-0.000122,-0.01,0.0,0.02,-0.3,3.16,9.27,23
8.436778,-0.32,3.16,9.26,0.125,-0.375,0.3125,6.75,77.5,-15.25,0.0,-1.75,-18.8125,0.986389,0.163513,0.01593,-0.000122,-0.01,0.01,0.0,-0.3,3.16,9.27,23
8.447792,-0.32,3.17,9.27,0.1875,-0.125,0.25,6.75,77.5,-15.25,0.0,-1.75,-18.8125,0.986389,0.163513,0.01593,-0.000122,0.0,-0.01,0.0,-0.3,3.16,9.27,23
8.458806,-0.31,3.15,9.28,0.125,-0.4375,0.3125,6.75,77.5,-15.25,0.0,-1.75,-18.8125,0.986389,0.163513,0.01593,-0.000122,-0.01,0.0,0.0,-0.3,3.16,9.27,23
8.46982,-0.32,3.15,9.27,0.0,-0.375,0.25,6.75,77.5,-15.25,0.0,-1.75,-18.8125,0.986389,0.163513,0.01593,-0.000122,-0.02,0.0,0.01,-0.3,3.16,9.27,23
8.480834,-0.33,3.16,9.28,-0.1875,-0.3125,0.1875,5.25,78.25,-14.875,0.0,-1.75,-18.8125,0.986389,0.163513,0.01593,-0.000122,-0.02,0.0,0.01,-0.3,3.16,9.27,23
8.491848,-0.33,3.16,9.28,-0.1875,-0.125,0.1875,5.25,78.25,-14.875,0.0,-1.75,-18.8125,0.986389,0.163513,0.01593,-0.000122,0.0,-0.02,0.02,-0.3,3.16,9.27,23
8.502862,-0.33,3.15,9.25,-0.125,-0.1875,0.1875,5.25,78.25,-14.875,0.0,-1.75,-18.8125,0.986389,0.163513,0.01593,-0.000122,-0.02,-0.01,-0.02,-0.3,3.16,9.27,23
8.513876,-0.31,3.16,9.26,-0.0625,-0.25,0.1875,5.25,78.25,-14.875,0.0,-1.75,-18.8125,0.986389,0.163513,0.01593,-0.000122,-0.01,0.0,0.0,-0.3,3.16,9.27,23
8.524891,-0.32,3.16,9.27,-0.125,-0.3125,0.125,5.25,78.25,-14.875,0.0,-1.75,-18.8125,0.986389,0.163513,0.01593,-0.000122,-0.01,0.0,0.0,-0.3,3.16,9.27,23
8.535905,-0.32,3.16,9.27,0.0,-0.0625,0.1875,6.0,77.5,-15.75,0.0,-1.75,-18.8125,0.986389,0.163513,0.01593,-0.000122,-0.01,0.0,0.0,-0.3,3.16,9.27,23
8.546919,-0.32,3.16,9.28,-0.3125,-0.3125,0.1875,6.0,77.5,-15.75,0.0,-1.75,-18.8125,0.986389,0.163513,0.01593,-0.000122,-0.01,0.01,-0.01,-0.3,3.16,9.27,23
8.557933,-0.32,3.17,9.25,-0.125,-0.25,0.125,6.0,77.5,-15.75,0.0,-1.75,-18.8125,0.986389,0.163513,0.01593,-0.000122,-0.02,0.0,0.0,-0.3,3.16,9.27,23
8.568947,-0.33,3.16,9.26,-0.125,-0.3125,0.25,6.0,77.5,-15.75,0.0,-1.75,-18.8125,0.986389,0.163513,0.01593,-0.000122,-0.01,0.01,0.02,-0.3,3.16,9.27,23
8.579961,-0.32,3.17,9.29,-0.25,-0.4375,0.1875,2.5625,78.875,-12.1875,0.0,-1.75,-18.8125,0.986389,0.163513,0.01593,-0.000122,-0.02,0.0,0.01,-0.3,3.16,9.27,23
8.590975,-0.33,3.16,9.28,-0.1875,-0.4375,0.125,2.5625,78.875,-12.1875,0.0,-1.75,-18.8125,0.986389,0.163513,0.01593,-0.000122,-0.02,0.0,0.0,-0.3,3.16,9.27,23
8.601989,-0.33,3.15,9.28,-0.0625,-0.5,0.1875,2.5625,78.875,-12.1875,0.0,-1.75,-18.8125,0.986389,0.163513,0.01593,-0.000122,0.0,-0.01,-0.01,-0.3,3.16,9.27,23
8.613003,-0.31,3.15,9.26,-0.3125,-0.125,0.25,2.5625,78.875,-12.1875,0.0,-1.75,-18.8125,0.986389,0.163513,0.01593,-0.000122,-0.02,0.0,0.0,-0.3,3.16,9.27,23
