t,acc_X,acc_Y,acc_Z,gyr_X,gyr_Y,gyr_Z,mag_X,mag_Y,mag_Z,eul_heading,eul_roll,eul_pitch,quat_w,quat_x,quat_y,quat_z,lia_X,lia_Y,lia_Z,grv_X,grv_Y,grv_Z,temp
0.0,-1.35,2.79,9.37,0.1875,-0.0625,0.125,-25.375,29.5625,-63.1875,0.0,0.0,0.0,1.0,0.0,0.0,0.0,-1.29,2.77,-0.4,0.0,0.0,9.8,30
0.010965,-1.29,2.77,9.39,-0.25,-0.375,0.25,-25.375,29.5625,-63.1875,0.0,0.0,0.0,1.0,0.0,0.0,0.0,-1.21,2.77,-0.4,0.0,0.0,9.8,30
0.021931,-1.21,2.77,9.4,-0.1875,-0.3125,0.125,-41.875,30.6875,-63.1875,0.0,0.0,0.0,1.0,0.0,0.0,0.0,-1.06,2.78,-0.44,0.0,0.0,9.8,30
0.032896,-1.06,2.78,9.36,-0.125,-0.25,0.1875,-41.875,30.6875,-63.1875,0.0,0.0,0.0,1.0,0.0,0.0,0.0,-0.83,2.79,-0.45,0.0,0.0,9.8,30
0.043861,-0.83,2.79,9.35,-0.0625,-0.375,0.25,-41.875,30.6875,-63.1875,0.0,0.0,0.0,1.0,0.0,0.0,0.0,-0.34,2.79,-0.45,0.0,0.0,9.8,30
0.054827,-0.34,2.79,9.35,-0.125,-0.0625,0.25,-41.875,30.6875,-63.1875,0.0,0.0,0.0,1.0,0.0,0.0,0.0,-0.16,2.82,-0.47,0.0,0.0,9.8,30
0.065792,-0.16,2.82,9.32,0.125,0.0,0.25,-41.875,30.6875,-63.1875,0.0,0.0,0.0,1.0,0.0,0.0,0.0,0.07,2.81,-0.47,0.0,0.0,9.8,30
0.076757,0.07,2.81,9.33,-0.0625,-0.125,0.1875,-39.6875,30.6875,-61.5625,0.0,0.0,0.0,1.0,0.0,0.0,0.0,0.29,2.8,-0.45,0.0,0.0,9.8,30
0.087723,0.29,2.8,9.35,0.0,-0.3125,0.1875,-39.6875,30.6875,-61.5625,0.0,0.0,0.0,1.0,0.0,0.0,0.0,0.51,2.81,-0.48,0.0,0.0,9.8,30
0.098688,0.51,2.81,9.31,-0.0625,-0.3125,0.1875,-39.6875,30.6875,-61.5625,0.0,0.0,0.0,1.0,0.0,0.0,0.0,0.58,2.83,-0.49,0.0,0.0,9.8,30
0.109653,0.58,2.83,9.31,0.0,-0.375,0.25,-39.6875,30.6875,-61.5625,0.0,0.0,0.0,1.0,0.0,-6.1e-05,0.0,0.59,2.82,-0.49,0.0,0.0,9.8,30
0.120619,0.59,2.82,9.31,-0.1875,-0.6875,0.25,-39.6875,30.6875,-61.5625,0.0,0.0,0.0,1.0,0.0,-6.1e-05,0.0,0.5,2.8,-0.47,0.0,0.0,9.8,30
0.131584,0.5,2.8,9.33,-0.125,-0.4375,0.0625,-22.0625,28.75,-63.5625,0.0,0.0,0.0,1.0,0.0,-6.1e-05,0.0,0.19,2.81,-0.47,0.0,0.0,9.8,30
0.142549,0.19,2.81,9.33,-0.125,-0.0625,0.25,-22.0625,28.75,-63.5625,0.0,0.0,0.0,1.0,0.0,-6.1e-05,0.0,-0.05,2.82,-0.48,0.0,0.0,9.8,30
0.153515,-0.05,2.82,9.31,0.0625,-0.3125,0.1875,-22.0625,28.75,-63.5625,0.0,0.0,0.0,1.0,0.0,-6.1e-05,0.0,-0.27,2.77,-0.47,0.0,0.0,9.8,30
0.16448,-0.27,2.77,9.33,0.0625,-0.25,0.125,-22.0625,28.75,-63.5625,0.0,0.0,0.0,1.0,0.0,-6.1e-05,0.0,-0.7,2.8,-0.43,0.0,0.0,9.8,30
0.175445,-0.7,2.8,9.37,0.0,0.0,0.1875,-22.0625,28.75,-63.5625,0.0,0.0,0.0,1.0,0.0,-6.1e-05,0.0,-0.93,2.78,-0.44,0.0,0.0,9.8,30
0.186411,-0.93,2.78,9.36,-0.125,-0.1875,0.1875,-25.0625,28.375,-63.5625,0.0,0.0,0.0,1.0,0.0,-6.1e-05,0.0,-1.1,2.79,-0.45,0.0,0.0,9.8,30
0.197376,-1.1,2.79,9.35,-0.1875,-0.0625,0.125,-25.0625,28.375,-63.5625,0.0,0.0,0.0,1.0,0.0,-6.1e-05,0.0,-1.27,2.79,-0.44,0.0,0.0,9.8,30
0.208341,-1.27,2.79,9.36,-0.1875,-0.5,0.25,-25.0625,28.375,-63.5625,0.0,0.0,0.0,1.0,0.0,-6.1e-05,0.0,-1.38,2.8,-0.43,0.0,0.0,9.8,30
0.219307,-1.38,2.8,9.37,0.0625,-0.4375,0.3125,-25.0625,28.375,-63.5625,0.0,0.0,0.0,1.0,0.0,-6.1e-05,0.0,-1.35,2.79,-0.42,0.0,0.0,9.8,30
0.230272,-1.35,2.79,9.38,-0.25,-0.4375,0.1875,-25.0625,28.375,-63.5625,0.0,0.0,0.0,1.0,0.0,-6.1e-05,0.0,-1.26,2.76,-0.42,0.0,0.0,9.8,30
0.241237,-1.25,2.76,9.38,-0.125,-0.25,0.1875,-39.25,30.6875,-65.6875,0.0,0.0,0.0,1.0,0.0,-6.1e-05,0.0,-1.07,2.81,-0.4,0.0,0.0,9.8,30
0.252203,-1.07,2.81,9.39,0.0,-0.0625,0.0625,-39.25,30.6875,-65.6875,0.0,0.0,0.0,1.0,0.0,-6.1e-05,0.0,-0.62,2.8,-0.45,0.0,0.0,9.8,30
0.263168,-0.62,2.8,9.35,0.25,-0.3125,0.25,-39.25,30.6875,-65.6875,0.0,0.0,0.0,1.0,0.0,-6.1e-05,0.0,-0.38,2.8,-0.44,0.0,0.0,9.8,30
0.274134,-0.38,2.8,9.36,0.0625,-0.25,0.125,-39.25,30.6875,-65.6875,0.0,0.0,0.0,1.0,0.0,-6.1e-05,0.0,-0.19,2.81,-0.45,0.0,0.0,9.8,30
0.285099,-0.19,2.81,9.35,-0.1875,-0.1875,0.125,-35.875,29.875,-64.375,0.0,0.0,0.0,1.0,0.0,-6.1e-05,0.0,0.05,2.82,-0.45,0.0,0.0,9.8,30
0.296064,0.05,2.82,9.34,-0.0625,-0.1875,0.1875,-35.875,29.875,-64.375,0.0,0.0,0.0,1.0,0.0,-6.1e-05,0.0,0.4,2.82,-0.46,0.0,0.0,9.8,30
0.30703,0.4,2.82,9.34,-0.0625,0.125,0.125,-35.875,29.875,-64.375,0.0,0.0,0.0,1.0,0.0,-6.1e-05,0.0,0.52,2.8,-0.5,0.0,0.0,9.8,30
0.317995,0.52,2.8,9.3,-0.3125,-0.3125,0.1875,-35.875,29.875,-64.375,0.0,0.0,0.0,1.0,0.0,-6.1e-05,0.0,0.58,2.82,-0.48,0.0,0.0,9.8,30
0.32896,0.58,2.82,9.32,-0.125,-0.4375,0.25,-35.875,29.875,-64.375,0.0,0.0,0.0,1.0,0.0,-6.1e-05,0.0,0.52,2.82,-0.48,0.0,0.0,9.8,30
0.339926,0.52,2.82,9.32,0.0,-0.4375,0.125,-23.1875,28.75,-63.5625,0.0,0.0,0.0,1.0,0.0,-6.1e-05,0.0,0.4,2.81,-0.48,0.0,0.0,9.8,30
0.350891,0.2,2.82,9.35,0.1875,0.125,0.1875,-23.1875,28.75,-63.5625,0.0,0.0,0.0,1.0,0.0,-6.1e-05,0.0,0.2,2.82,-0.45,0.0,0.0,9.8,30
0.361856,-0.01,2.82,9.35,0.1875,0.0625,0.25,-23.1875,28.75,-63.5625,0.0,0.0,0.0,1.0,0.0,-6.1e-05,0.0,-0.44,2.8,-0.46,0.0,0.0,9.8,30
0.372822,-0.44,2.8,9.34,-0.1875,-0.1875,0.1875,-23.1875,28.75,-63.5625,0.0,0.0,0.0,1.0,0.0,-6.1e-05,0.0,-0.68,2.8,-0.44,0.0,0.0,9.8,30
0.383787,-0.67,2.8,9.36,-0.125,-0.5625,0.3125,-23.1875,28.75,-63.5625,0.0,0.0,0.0,1.0,0.0,-6.1e-05,0.0,-0.93,2.8,-0.43,0.0,0.0,9.8,30
0.394752,-0.93,2.8,9.37,-0.125,-0.25,0.25,-25.375,29.1875,-66.5,0.0,0.0,0.0,1.0,0.0,-6.1e-05,0.0,-1.09,2.78,-0.43,0.0,0.0,9.8,30
0.405718,-1.09,2.78,9.37,0.1875,-0.125,0.25,-25.375,29.1875,-66.5,0.0,0.0,0.0,1.0,0.0,-6.1e-05,0.0,-1.33,2.78,-0.43,0.0,0.0,9.8,30
0.416683,-1.33,2.78,9.37,0.1875,-0.125,0.0625,-25.375,29.1875,-66.5,0.0,0.0,0.0,1.0,0.0,-6.1e-05,0.0,-1.37,2.79,-0.42,0.0,0.0,9.8,30
0.427648,-1.37,2.79,9.38,-0.125,-0.3125,0.1875,-25.375,29.1875,-66.5,0.0,0.0,0.0,1.0,0.0,-6.1e-05,0.0,-1.35,2.8,-0.43,0.0,0.0,9.8,30
0.438614,-1.35,2.8,9.37,-0.125,-0.3125,0.25,-25.375,29.1875,-66.5,0.0,0.0,0.0,1.0,0.0,-6.1e-05,0.0,-1.26,2.77,-0.39,0.0,0.0,9.8,30
0.449579,-1.26,2.77,9.4,-0.125,-0.25,0.125,-38.875,30.25,-64.5,0.0,0.0,0.0,1.0,0.0,-6.1e-05,0.0,-0.89,2.79,-0.46,0.0,0.0,9.8,30
0.460544,-0.89,2.79,9.34,0.0,-0.1875,0.25,-38.875,30.25,-64.5,0.0,0.0,0.0,1.0,0.0,-6.1e-05,0.0,-0.66,2.81,-0.48,0.0,0.0,9.8,30
0.47151,-0.66,2.81,9.32,0.0,0.0,0.375,-38.875,30.25,-64.5,0.0,0.0,0.0,1.0,0.0,-6.1e-05,0.0,-0.4,2.81,-0.45,0.0,0.0,9.8,30
0.482475,-0.4,2.81,9.35,0.125,-0.1875,0.1875,-38.875,30.25,-64.5,0.0,0.0,0.0,1.0,0.0,-6.1e-05,0.0,0.01,2.8,-0.46,0.0,0.0,9.8,30
0.49344,0.01,2.8,9.33,0.0,-0.1875,0.3125,-35.5625,30.25,-64.0625,0.0,0.0,0.0,1.0,0.0,-6.1e-05,0.0,0.22,2.83,-0.46,0.0,0.0,9.8,30
0.504406,0.22,2.83,9.33,-0.125,-0.3125,0.1875,-35.5625,30.25,-64.0625,0.0,0.0,0.0,1.0,0.0,-6.1e-05,0.0,0.39,2.82,-0.47,0.0,0.0,9.8,30
0.515371,0.52,2.81,9.3,-0.125,-0.25,0.1875,-35.5625,30.25,-64.0625,0.0,0.0,0.0,1.0,0.0,-6.1e-05,0.0,0.52,2.81,-0.49,0.0,0.0,9.8,30
0.526336,0.57,2.82,9.3,0.0,-0.25,0.1875,-35.5625,30.25,-64.0625,0.0,0.0,0.0,1.0,0.0,-6.1e-05,0.0,0.52,2.84,-0.44,0.0,0.0,9.8,30
0.537302,0.52,2.84,9.36,-0.1875,-0.3125,0.25,-24.25,29.5625,-60.375,0.0,0.0,0.0,1.0,0.0,-6.1e-05,0.0,0.4,2.83,-0.47,0.0,0.0,9.8,30
0.548267,0.4,2.83,9.33,-0.0625,0.0,0.1875,-24.25,29.5625,-60.375,0.0,0.0,0.0,1.0,0.0,-6.1e-05,0.0,0.22,2.82,-0.46,0.0,0.0,9.8,30
0.559232,0.22,2.82,9.33,-0.0625,-0.125,0.1875,-24.25,29.5625,-60.375,0.0,0.0,0.0,1.0,0.0,-6.1e-05,0.0,-0.24,2.81,-0.47,0.0,0.0,9.8,30
0.570198,-0.23,2.81,9.32,0.125,-0.4375,0.25,-24.25,29.5625,-60.375,0.0,0.0,0.0,1.0,0.0,-6.1e-05,0.0,-0.41,2.81,-0.45,0.0,0.0,9.8,30
0.581163,-0.41,2.81,9.35,0.0625,-0.375,0.125,-24.25,29.5625,-60.375,0.0,0.0,0.0,1.0,0.0,-6.1e-05,0.0,-0.65,2.8,-0.44,0.0,0.0,9.8,30
0.592128,-0.65,2.8,9.36,-0.125,-0.125,0.1875,-27.25,29.1875,-60.375,0.0,0.0,0.0,1.0,0.0,-6.1e-05,0.0,-0.91,2.79,-0.44,0.0,0.0,9.8,30
0.603094,-0.91,2.79,9.36,-0.125,-0.625,0.0625,-27.25,29.1875,-60.375,0.0,0.0,0.0,1.0,0.0,-0.000122,0.0,-1.24,2.78,-0.41,0.0,0.0,9.8,30
0.614059,-1.24,2.78,9.39,0.0,-0.3125,0.125,-27.25,29.1875,-60.375,0.0,0.0,0.0,1.0,0.0,-0.000122,0.0,-1.34,2.79,-0.43,0.0,0.0,9.8,30
0.625024,-1.34,2.79,9.37,-0.3125,-0.25,0.25,-27.25,29.1875,-60.375,0.0,0.0,0.0,1.0,0.0,-0.000122,0.0,-1.36,2.79,-0.43,0.0,0.0,9.8,30
0.63599,-1.35,2.79,9.37,0.0,-0.375,0.1875,-27.25,29.1875,-60.375,0.0,0.0,0.0,1.0,0.0,-0.000122,0.0,-1.34,2.8,-0.4,0.0,0.0,9.8,30
0.646955,-1.34,2.8,9.39,-0.0625,-0.25,0.25,-41.1875,31.0625,-62.0,0.0,0.0,0.0,1.0,0.0,-0.000122,0.0,-1.1,2.78,-0.41,0.0,0.0,9.8,30
0.65792,-1.1,2.78,9.39,-0.1875,-0.375,0.125,-41.1875,31.0625,-62.0,0.0,0.0,0.0,1.0,0.0,-0.000122,0.0,-0.91,2.79,-0.43,0.0,0.0,9.8,30
0.668886,-0.9,2.79,9.37,-0.125,-0.375,0.1875,-41.1875,31.0625,-62.0,0.0,0.0,0.0,1.0,0.0,-0.000122,0.0,-0.69,2.8,-0.44,0.0,0.0,9.8,30
0.679851,-0.69,2.8,9.36,0.0,-0.3125,0.25,-41.1875,31.0625,-62.0,0.0,0.0,0.0,1.0,0.0,-0.000122,0.0,-0.25,2.81,-0.46,0.0,0.0,9.8,30
0.690816,-0.25,2.81,9.34,-0.0625,-0.25,0.125,-41.1875,31.0625,-62.0,0.0,0.0,0.0,1.0,0.0,-0.000122,0.0,-0.03,2.81,-0.46,0.0,0.0,9.8,30
0.701782,-0.02,2.81,9.34,-0.3125,-0.4375,0.1875,-35.1875,29.5625,-64.875,0.0,0.0,0.0,1.0,0.0,-0.000122,0.0,0.22,2.81,-0.49,0.0,0.0,9.8,30
0.712747,0.22,2.81,9.3,-0.25,-0.5,0.25,-35.1875,29.5625,-64.875,0.0,0.0,0.0,1.0,0.0,-0.000122,0.0,0.37,2.83,-0.47,0.0,0.0,9.8,30
0.723712,0.37,2.83,9.33,-0.1875,-0.25,0.125,-35.1875,29.5625,-64.875,0.0,0.0,0.0,1.0,0.0,-0.000122,0.0,0.59,2.82,-0.49,0.0,0.0,9.8,30
0.734678,0.59,2.82,9.3,-0.125,-0.375,0.125,-35.1875,29.5625,-64.875,0.0,0.0,0.0,1.0,0.0,-0.000122,0.0,0.59,2.83,-0.48,0.0,0.0,9.8,30
0.745643,0.59,2.83,9.31,0.0,-0.3125,0.25,-35.1875,29.5625,-64.875,0.0,0.0,0.0,1.0,0.0,-0.000122,0.0,0.53,2.84,-0.48,0.0,0.0,9.8,30
0.756608,0.53,2.84,9.31,-0.125,-0.375,0.125,-20.875,28.75,-64.5,0.0,0.0,0.0,1.0,0.0,-0.000122,0.0,0.42,2.82,-0.46,0.0,0.0,9.8,30
0.767574,0.43,2.82,9.34,-0.125,0.0,0.1875,-20.875,28.75,-64.5,0.0,0.0,0.0,1.0,0.0,-0.000122,0.0,0.05,2.82,-0.45,0.0,0.0,9.8,30
0.778539,-0.2,2.81,9.33,-0.25,-0.3125,0.1875,-20.875,28.75,-64.5,0.0,0.0,0.0,1.0,0.0,-0.000122,0.0,-0.2,2.81,-0.46,0.0,0.0,9.8,30
0.789505,-0.38,2.8,9.37,-0.0625,-0.25,0.125,-20.875,28.75,-64.5,0.0,0.0,0.0,1.0,0.0,-0.000122,0.0,-0.61,2.79,-0.42,0.0,0.0,9.8,30
0.80047,-0.61,2.79,9.38,-0.25,-0.1875,0.125,-20.875,28.75,-64.5,0.0,0.0,0.0,1.0,0.0,-0.000122,0.0,-0.61,2.79,-0.42,0.0,0.0,9.8,30
0.811435,-1.05,2.81,9.38,-0.0625,-0.1875,0.0,-25.375,28.75,-65.75,0.0,0.0,0.0,1.0,0.0,-0.000122,0.0,-1.23,2.81,-0.43,0.0,0.0,9.8,30
0.822401,-1.23,2.81,9.37,-0.0625,-0.3125,0.25,-25.375,28.75,-65.75,0.0,0.0,0.0,1.0,0.0,-0.000122,0.0,-1.33,2.8,-0.44,0.0,0.0,9.8,30
0.833366,-1.33,2.8,9.36,0.0,-0.25,0.1875,-25.375,28.75,-65.75,0.0,0.0,0.0,1.0,0.0,-0.000122,0.0,-1.35,2.78,-0.42,0.0,0.0,9.8,30
0.844331,-1.35,2.78,9.38,-0.0625,-0.4375,0.1875,-25.375,28.75,-65.75,0.0,0.0,0.0,1.0,0.0,-0.000122,0.0,-1.29,2.78,-0.41,0.0,0.0,9.8,30
0.855297,-1.28,2.78,9.39,-0.1875,-0.125,0.1875,-40.375,31.0625,-64.5,0.0,0.0,0.0,1.0,0.0,-0.000122,0.0,-1.12,2.79,-0.41,0.0,0.0,9.8,30
0.866262,-1.12,2.79,9.39,0.125,-0.125,0.1875,-40.375,31.0625,-64.5,0.0,0.0,0.0,1.0,0.0,-0.000122,0.0,-0.94,2.8,-0.4,0.0,0.0,9.8,30
0.877227,-0.94,2.8,9.39,0.0,-0.125,0.25,-40.375,31.0625,-64.5,0.0,0.0,0.0,1.0,0.0,-0.000122,0.0,-0.45,2.81,-0.44,0.0,0.0,9.8,30
0.888193,-0.45,2.81,9.36,0.0,-0.25,0.1875,-40.375,31.0625,-64.5,0.0,0.0,0.0,1.0,0.0,-0.000122,0.0,-0.27,2.8,-0.47,0.0,0.0,9.8,30
0.899158,-0.27,2.8,9.32,0.0625,-0.125,0.25,-40.375,31.0625,-64.5,0.0,0.0,0.0,1.0,0.0,-0.000122,0.0,-0.06,2.82,-0.46,0.0,0.0,9.8,30
0.910123,-0.06,2.82,9.34,-0.0625,-0.3125,0.3125,-35.5625,29.5625,-66.0625,0.0,0.0,0.0,1.0,0.0,-0.000122,0.0,0.19,2.81,-0.45,0.0,0.0,9.8,30
0.921089,0.19,2.81,9.35,-0.125,-0.0625,0.1875,-35.5625,29.5625,-66.0625,0.0,0.0,0.0,1.0,0.0,-0.000122,0.0,0.49,2.83,-0.48,0.0,0.0,9.8,30
0.932054,0.49,2.83,9.32,-0.1875,-0.375,0.1875,-35.5625,29.5625,-66.0625,0.0,0.0,0.0,1.0,0.0,-0.000122,0.0,0.59,2.81,-0.49,0.0,0.0,9.8,30
0.943019,0.59,2.81,9.3,-0.25,-0.4375,0.0625,-35.5625,29.5625,-66.0625,0.0,0.0,0.0,1.0,0.0,-0.000122,0.0,0.6,2.84,-0.49,0.0,0.0,9.8,30
0.953985,0.6,2.84,9.31,0.0,-0.125,0.125,-35.5625,29.5625,-66.0625,0.0,0.0,0.0,1.0,0.0,-0.000122,0.0,0.54,2.82,-0.47,0.0,0.0,9.8,30
0.96495,0.28,2.8,9.32,0.0,-0.0625,0.1875,-20.875,29.875,-64.875,0.0,0.0,0.0,1.0,0.0,-0.000122,0.0,0.28,2.8,-0.48,0.0,0.0,9.8,30
0.975915,0.06,2.81,9.33,-0.1875,-0.125,0.125,-20.875,29.875,-64.875,0.0,0.0,0.0,1.0,0.0,-0.000122,0.0,-0.18,2.8,-0.47,0.0,0.0,9.8,30
0.986881,-0.18,2.8,9.32,-0.0625,-0.25,0.25,-20.875,29.875,-64.875,0.0,0.0,0.0,1.0,0.0,-0.000122,0.0,-0.37,2.81,-0.47,0.0,0.0,9.8,30
0.997846,-0.37,2.81,9.33,-0.1875,-0.3125,0.1875,-20.875,29.875,-64.875,0.0,0.0,0.0,1.0,0.0,-0.000122,0.0,-0.83,2.8,-0.45,0.0,0.0,9.8,30
1.008811,-0.83,2.8,9.35,0.0,-0.3125,0.25,-20.875,29.875,-64.875,0.0,0.0,0.0,1.0,0.0,-0.000122,0.0,-0.83,2.8,-0.45,0.0,0.0,9.8,30
1.019777,-1.03,2.81,9.37,0.125,-0.1875,0.125,-26.875,28.75,-66.0625,0.0,0.0,0.0,1.0,0.0,-0.000122,0.0,-1.22,2.8,-0.42,0.0,0.0,9.8,30
1.030742,-1.22,2.8,9.38,-0.125,-0.125,0.1875,-26.875,28.75,-66.0625,0.0,0.0,0.0,1.0,0.0,-0.000122,0.0,-1.36,2.78,-0.43,0.0,0.0,9.8,30
1.041707,-1.36,2.78,9.37,-0.0625,-0.375,0.1875,-26.875,28.75,-66.0625,0.0,0.0,0.0,1.0,0.0,-0.000122,0.0,-1.36,2.78,-0.42,0.0,0.0,9.8,30
1.052673,-1.36,2.78,9.38,-0.125,-0.3125,0.25,-26.875,28.75,-66.0625,0.0,0.0,0.0,1.0,0.0,-0.000122,0.0,-1.29,2.79,-0.4,0.0,0.0,9.8,30
1.063638,-1.28,2.79,9.4,-0.0625,-0.1875,0.125,-41.1875,31.0625,-60.75,0.0,0.0,0.0,1.0,0.0,-0.000122,0.0,-1.16,2.78,-0.39,0.0,0.0,9.8,30
1.074603,-1.16,2.78,9.4,0.0,-0.0625,0.25,-41.1875,31.0625,-60.75,0.0,0.0,0.0,1.0,0.0,-0.000122,0.0,-0.76,2.81,-0.46,0.0,0.0,9.8,30
1.085569,-0.76,2.81,9.34,0.0625,-0.25,0.25,-41.1875,31.0625,-60.75,0.0,0.0,0.0,1.0,0.0,-0.000122,0.0,-0.48,2.8,-0.45,0.0,0.0,9.8,30
1.096534,-0.47,2.8,9.35,-0.1875,-0.25,0.1875,-41.1875,31.0625,-60.75,0.0,0.0,0.0,1.0,0.0,-0.000122,0.0,-0.28,2.79,-0.45,0.0,0.0,9.8,30
1.107499,-0.28,2.79,9.35,-0.1875,-0.25,0.25,-41.1875,31.0625,-60.75,0.0,0.0,0.0,1.0,0.0,-0.000122,0.0,-0.07,2.81,-0.45,0.0,0.0,9.8,30
1.118465,-0.07,2.81,9.35,-0.0625,-0.25,0.1875,-37.0625,31.0625,-60.375,0.0,0.0,0.0,1.0,0.0,-0.000122,0.0,0.32,2.85,-0.45,0.0,0.0,9.8,30
1.12943,0.33,2.85,9.34,0.0,-0.25,0.1875,-37.0625,31.0625,-60.375,0.0,0.0,0.0,1.0,0.0,-0.000122,0.0,0.49,2.82,-0.47,0.0,0.0,9.8,30
1.140395,0.49,2.82,9.33,-0.0625,-0.1875,0.1875,-37.0625,31.0625,-60.375,0.0,0.0,0.0,1.0,0.0,-0.000122,0.0,0.56,2.82,-0.48,0.0,0.0,9.8,30
1.151361,0.56,2.82,9.31,-0.125,-0.1875,0.3125,-37.0625,31.0625,-60.375,0.0,0.0,0.0,1.0,0.0,-0.000122,0.0,0.58,2.83,-0.45,0.0,0.0,9.8,30
1.162326,0.58,2.83,9.34,-0.125,-0.0625,0.1875,-37.0625,31.0625,-60.375,0.0,0.0,0.0,1.0,0.0,-0.000122,0.0,0.44,2.83,-0.46,0.0,0.0,9.8,30
1.173291,0.45,2.83,9.33,0.1875,-0.1875,0.125,-22.375,29.5625,-59.5625,0.0,0.0,0.0,1.0,0.0,-0.000122,0.0,0.31,2.82,-0.45,0.0,0.0,9.8,30
1.184257,0.31,2.82,9.34,-0.1875,-0.3125,0.1875,-22.375,29.5625,-59.5625,0.0,0.0,0.0,1.0,0.0,-0.000122,0.0,0.11,2.82,-0.47,0.0,0.0,9.8,30
1.195222,0.11,2.82,9.32,-0.0625,-0.3125,0.1875,-22.375,29.5625,-59.5625,0.0,0.0,0.0,1.0,0.0,-0.000122,0.0,-0.36,2.8,-0.47,0.0,0.0,9.8,30
1.206187,-0.36,2.8,9.32,-0.125,-0.4375,0.0625,-22.375,29.5625,-59.5625,0.0,0.0,0.0,1.0,0.0,-0.000122,0.0,-0.56,2.81,-0.44,0.0,0.0,9.8,30
1.217153,-0.56,2.81,9.36,-0.125,-0.1875,0.1875,-22.375,29.5625,-59.5625,0.0,0.0,0.0,1.0,0.0,-0.000122,0.0,-0.83,2.79,-0.43,0.0,0.0,9.8,30
1.228118,-0.82,2.79,9.37,-0.0625,-0.0625,0.1875,-27.6875,29.875,-63.75,0.0,0.0,0.0,1.0,0.0,-0.000122,0.0,-1.03,2.8,-0.42,0.0,0.0,9.8,30
1.239083,-1.02,2.8,9.38,0.125,0.125,0.1875,-27.6875,29.875,-63.75,0.0,0.0,0.0,1.0,0.0,-0.000122,0.0,-1.3,2.77,-0.44,0.0,0.0,9.8,30
1.250049,-1.3,2.77,9.36,0.0625,-0.0625,0.25,-27.6875,29.875,-63.75,0.0,0.0,0.0,1.0,0.0,-0.000122,0.0,-1.37,2.76,-0.45,0.0,0.0,9.8,30
1.261014,-1.37,2.76,9.35,-0.125,-0.1875,0.25,-27.6875,29.875,-63.75,0.0,0.0,0.0,1.0,0.0,-0.000122,0.0,-1.36,2.78,-0.44,0.0,0.0,9.8,30
1.27198,-1.36,2.78,9.36,-0.1875,-0.25,0.125,-27.6875,29.875,-63.75,0.0,0.0,0.0,1.0,0.0,-0.000122,0.0,-1.33,2.78,-0.45,0.0,0.0,9.8,30
1.282945,-1.33,2.78,9.35,-0.4375,-0.4375,0.0625,-38.875,31.0625,-65.75,0.0,0.0,0.0,1.0,0.0,-0.000122,0.0,-0.99,2.78,-0.43,0.0,0.0,9.8,30
1.29391,-0.77,2.79,9.35,-0.125,-0.4375,0.25,-38.875,31.0625,-65.75,0.0,0.0,0.0,1.0,0.0,-0.000122,0.0,-0.77,2.79,-0.45,0.0,0.0,9.8,30
1.304876,-0.52,2.8,9.35,-0.1875,-0.4375,0.1875,-38.875,31.0625,-65.75,0.0,0.0,0.0,1.0,0.0,-0.000122,0.0,-0.3,2.79,-0.47,0.0,0.0,9.8,30
1.315841,-0.3,2.79,9.33,-0.125,-0.3125,0.25,-38.875,31.0625,-65.75,0.0,0.0,0.0,1.0,0.0,-0.000122,0.0,0.13,2.82,-0.49,0.0,0.0,9.8,30
1.326806,0.13,2.82,9.3,-0.125,-0.4375,0.1875,-38.875,31.0625,-65.75,0.0,0.0,0.0,1.0,0.0,-0.000122,0.0,0.13,2.82,-0.49,0.0,0.0,9.8,30
1.337772,0.32,2.81,9.31,-0.375,-0.375,0.3125,-34.75,29.875,-64.5625,0.0,0.0,0.0,1.0,0.0,-0.000122,0.0,0.44,2.82,-0.48,0.0,0.0,9.8,30
1.348737,0.44,2.82,9.31,0.0,-0.25,0.3125,-34.75,29.875,-64.5625,0.0,0.0,0.0,1.0,0.0,-0.000122,0.0,0.54,2.82,-0.48,0.0,0.0,9.8,30
1.359702,0.54,2.82,9.31,-0.0625,-0.4375,0.3125,-34.75,29.875,-64.5625,0.0,0.0,0.0,1.0,0.0,-0.000122,0.0,0.55,2.82,-0.47,0.0,0.0,9.8,30
1.370668,0.55,2.82,9.32,-0.125,-0.1875,0.1875,-34.75,29.875,-64.5625,0.0,0.0,0.0,1.0,0.0,-0.000122,0.0,0.45,2.82,-0.46,0.0,0.0,9.8,30
1.381633,0.31,2.82,9.34,-0.125,-0.25,0.0625,-19.375,28.0625,-65.375,0.0,0.0,0.0,1.0,0.0,-0.000122,0.0,0.31,2.82,-0.45,0.0,0.0,9.8,30
1.392598,-0.1,2.81,9.32,-0.0625,-0.25,0.1875,-19.375,28.0625,-65.375,0.0,0.0,0.0,1.0,0.0,-0.000122,0.0,-0.33,2.79,-0.43,0.0,0.0,9.8,30
1.403564,-0.33,2.79,9.37,-0.125,-0.3125,0.25,-19.375,28.0625,-65.375,0.0,0.0,0.0,1.0,0.0,-0.000122,0.0,-0.55,2.8,-0.49,0.0,0.0,9.8,30
1.414529,-0.55,2.8,9.31,0.0,-0.125,0.125,-19.375,28.0625,-65.375,0.0,0.0,0.0,1.0,0.0,-0.000122,0.0,-0.77,2.81,-0.42,0.0,0.0,9.8,30
1.425494,-0.77,2.81,9.38,-0.1875,-0.5625,0.25,-19.375,28.0625,-65.375,0.0,0.0,0.0,1.0,0.0,-0.000122,0.0,-0.77,2.81,-0.42,0.0,0.0,9.8,30
1.43646,-1.16,2.78,9.39,-0.0625,-0.1875,0.1875,-26.875,29.5625,-64.875,0.0,0.0,0.0,1.0,0.0,-0.000122,0.0,-1.3,2.77,-0.43,0.0,0.0,9.8,30
1.447425,-1.3,2.77,9.37,-0.125,-0.5,0.125,-26.875,29.5625,-64.875,0.0,0.0,0.0,1.0,0.0,-0.000122,0.0,-1.36,2.78,-0.44,0.0,0.0,9.8,30
1.45839,-1.36,2.78,9.36,-0.125,-0.3125,0.125,-26.875,29.5625,-64.875,0.0,0.0,0.0,1.0,0.0,-0.000122,0.0,-1.38,2.8,-0.42,0.0,0.0,9.8,30
1.469356,-1.38,2.8,9.38,0.125,-0.1875,0.1875,-26.875,29.5625,-64.875,0.0,0.0,0.0,1.0,0.0,-0.000122,0.0,-1.18,2.78,-0.44,0.0,0.0,9.8,30
1.480321,-1.18,2.78,9.36,0.125,-0.3125,0.25,-41.875,30.6875,-60.875,0.0,0.0,0.0,1.0,0.0,-0.000122,0.0,-1.02,2.79,-0.42,0.0,0.0,9.8,30
1.491286,-0.81,2.82,9.36,-0.0625,-0.1875,0.25,-41.875,30.6875,-60.875,0.0,0.0,0.0,1.0,0.0,-0.000122,0.0,-0.81,2.82,-0.44,0.0,0.0,9.8,30
1.502252,-0.55,2.8,9.35,0.0625,-0.25,0.25,-41.875,30.6875,-60.875,0.0,0.0,0.0,1.0,0.0,-0.000122,0.0,-0.15,2.8,-0.47,0.0,0.0,9.8,30
1.513217,-0.14,2.8,9.33,-0.1875,-0.375,0.1875,-41.875,30.6875,-60.875,0.0,0.0,0.0,1.0,0.0,-0.000122,0.0,0.08,2.82,-0.46,0.0,0.0,9.8,30
1.524182,0.09,2.82,9.34,-0.1875,-0.3125,0.125,-41.875,30.6875,-60.875,0.0,0.0,0.0,1.0,0.0,-0.000122,0.0,0.29,2.81,-0.47,0.0,0.0,9.8,30
1.535148,0.3,2.81,9.32,-0.25,-0.1875,0.25,-37.0625,31.375,-60.0625,0.0,0.0,0.0,1.0,0.0,-0.000122,0.0,0.53,2.84,-0.48,0.0,0.0,9.8,30
1.546113,0.54,2.84,9.32,-0.25,-0.4375,0.25,-37.0625,31.375,-60.0625,0.0,0.0,0.0,1.0,0.0,-0.000122,0.0,0.6,2.81,-0.5,0.0,0.0,9.8,30
1.557078,0.6,2.81,9.3,-0.3125,-0.375,0.3125,-37.0625,31.375,-60.0625,0.0,0.0,0.0,1.0,0.0,-0.000122,0.0,0.56,2.8,-0.5,0.0,0.0,9.8,30
1.568044,0.56,2.8,9.29,-0.0625,-0.0625,0.0625,-37.0625,31.375,-60.0625,0.0,0.0,0.0,1.0,0.0,-0.000122,0.0,0.48,2.81,-0.48,0.0,0.0,9.8,30
1.579009,0.48,2.81,9.32,0.125,-0.125,0.1875,-23.1875,29.1875,-59.5625,0.0,0.0,0.0,1.0,0.0,-0.000122,0.0,0.15,2.82,-0.47,0.0,0.0,9.8,30
1.589974,0.15,2.82,9.33,-0.25,-0.3125,0.1875,-23.1875,29.1875,-59.5625,0.0,0.0,0.0,1.0,0.0,-0.000122,0.0,-0.1,2.8,-0.46,0.0,0.0,9.8,30
1.60094,-0.1,2.8,9.33,-0.125,-0.3125,0.1875,-23.1875,29.1875,-59.5625,0.0,0.0,0.0,1.0,0.0,-0.000122,0.0,-0.31,2.8,-0.45,0.0,0.0,9.8,30
1.611905,-0.31,2.8,9.35,-0.125,-0.1875,0.1875,-23.1875,29.1875,-59.5625,0.0,0.0,0.0,1.0,0.0,-0.000122,0.0,-0.5,2.8,-0.46,0.0,0.0,9.8,30
1.62287,-0.5,2.8,9.33,-0.125,-0.375,0.1875,-23.1875,29.1875,-59.5625,0.0,0.0,0.0,1.0,0.0,-0.000122,0.0,-0.98,2.79,-0.43,0.0,0.0,9.8,30
1.633836,-0.98,2.79,9.37,0.0,-0.125,0.125,-30.25,30.25,-60.875,0.0,0.0,0.0,1.0,0.0,-0.000122,0.0,-1.15,2.79,-0.44,0.0,0.0,9.8,30
1.644801,-1.14,2.79,9.36,0.125,-0.1875,0.1875,-30.25,30.25,-60.875,0.0,0.0,0.0,1.0,0.0,-0.000122,0.0,-1.29,2.77,-0.43,0.0,0.0,9.8,30
1.655766,-1.29,2.77,9.37,-0.1875,-0.25,0.25,-30.25,30.25,-60.875,0.0,0.0,0.0,1.0,0.0,-0.000122,0.0,-1.36,2.77,-0.43,0.0,0.0,9.8,30
1.666732,-1.35,2.77,9.37,-0.0625,-0.125,0.1875,-30.25,30.25,-60.875,0.0,0.0,0.0,1.0,0.0,-0.000122,0.0,-1.32,2.78,-0.41,0.0,0.0,9.8,30
1.677697,-1.32,2.78,9.39,-0.125,-0.125,0.1875,-30.25,30.25,-60.875,0.0,0.0,0.0,1.0,0.0,-0.000122,0.0,-1.2,2.8,-0.43,0.0,0.0,9.8,30
1.688662,-1.2,2.8,9.37,-0.0625,-0.1875,0.25,-44.1875,31.75,-61.6875,0.0,0.0,0.0,1.0,0.0,-0.000122,0.0,-1.04,2.78,-0.41,0.0,0.0,9.8,30
1.699628,-1.04,2.78,9.39,0.0,-0.25,0.125,-44.1875,31.75,-61.6875,0.0,0.0,0.0,1.0,0.0,-0.000122,0.0,-0.85,2.8,-0.43,0.0,0.0,9.8,30
1.710593,-0.85,2.8,9.37,-0.5,-0.6875,0.25,-44.1875,31.75,-61.6875,0.0,0.0,0.0,1.0,0.0,-0.000183,0.0,-0.35,2.81,-0.44,0.0,0.0,9.8,30
1.721558,-0.34,2.81,9.36,-0.1875,-0.4375,0.125,-44.1875,31.75,-61.6875,0.0,0.0,0.0,1.0,0.0,-0.000183,0.0,-0.15,2.81,-0.46,0.0,0.0,9.8,30
1.732524,-0.15,2.81,9.34,-0.125,-0.25,0.25,-44.1875,31.75,-61.6875,0.0,0.0,0.0,1.0,0.0,-0.000183,0.0,0.06,2.82,-0.47,0.0,0.0,9.8,30
1.743489,0.06,2.82,9.32,-0.0625,-0.0625,0.125,-34.375,29.875,-60.0625,0.0,0.0,0.0,1.0,0.0,-0.000183,0.0,0.41,2.8,-0.46,0.0,0.0,9.8,30
1.754454,0.42,2.8,9.33,-0.3125,-0.1875,0.0625,-34.375,29.875,-60.0625,0.0,0.0,0.0,1.0,0.0,-0.000183,0.0,0.54,2.84,-0.5,0.0,0.0,9.8,30
1.76542,0.54,2.84,9.3,-0.1875,-0.3125,0.1875,-34.375,29.875,-60.0625,0.0,0.0,0.0,1.0,0.0,-0.000183,0.0,0.58,2.82,-0.47,0.0,0.0,9.8,30
1.776385,0.58,2.82,9.33,-0.125,0.125,0.25,-34.375,29.875,-60.0625,0.0,0.0,0.0,1.0,0.0,-0.000183,0.0,0.59,2.82,-0.48,0.0,0.0,9.8,30
1.787351,0.59,2.82,9.32,-0.125,-0.125,0.125,-34.375,29.875,-60.0625,0.0,0.0,0.0,1.0,0.0,-0.000183,0.0,0.36,2.82,-0.45,0.0,0.0,9.8,30
1.798316,0.16,2.82,9.32,0.0,-0.25,0.1875,-22.0625,29.875,-59.5625,0.0,0.0,0.0,1.0,0.0,-0.000183,0.0,0.15,2.82,-0.48,0.0,0.0,9.8,30
1.809281,-0.07,2.8,9.34,-0.125,-0.1875,0.25,-22.0625,29.875,-59.5625,0.0,0.0,0.0,1.0,0.0,-0.000183,0.0,-0.28,2.82,-0.47,0.0,0.0,9.8,30
1.820247,-0.28,2.82,9.33,-0.25,-0.4375,0.125,-22.0625,29.875,-59.5625,0.0,0.0,0.0,1.0,0.0,-0.000183,0.0,-0.71,2.8,-0.42,0.0,0.0,9.8,30
1.831212,-0.71,2.8,9.38,-0.0625,-0.375,0.25,-22.0625,29.875,-59.5625,0.0,0.0,0.0,1.0,0.0,-0.000183,0.0,-0.96,2.79,-0.43,0.0,0.0,9.8,30
1.842177,-0.96,2.79,9.37,0.0625,-0.3125,0.3125,-22.0625,29.875,-59.5625,0.0,0.0,0.0,1.0,0.0,-0.000183,0.0,-0.96,2.79,-0.43,0.0,0.0,9.8,30
1.853143,-1.13,2.79,9.37,0.0625,-0.1875,0.0625,-29.5625,29.875,-61.25,0.0,0.0,0.0,1.0,0.0,-0.000183,0.0,-1.25,2.78,-0.39,0.0,0.0,9.8,30
1.864108,-1.24,2.78,9.4,0.0,0.0,0.25,-29.5625,29.875,-61.25,0.0,0.0,0.0,1.0,0.0,-0.000183,0.0,-1.38,2.78,-0.43,0.0,0.0,9.8,30
1.875073,-1.37,2.78,9.37,-0.1875,-0.25,0.125,-29.5625,29.875,-61.25,0.0,0.0,0.0,1.0,0.0,-0.000183,0.0,-1.32,2.79,-0.43,0.0,0.0,9.8,30
1.886039,-1.32,2.79,9.37,-0.1875,-0.0625,0.0625,-29.5625,29.875,-61.25,0.0,0.0,0.0,1.0,0.0,-0.000183,0.0,-1.24,2.8,-0.42,0.0,0.0,9.8,30
1.897004,-1.24,2.8,9.38,-0.1875,-0.4375,0.25,-43.0625,30.6875,-61.6875,0.0,0.0,0.0,1.0,0.0,-0.000183,0.0,-0.87,2.77,-0.43,0.0,0.0,9.8,30
1.907969,-0.87,2.77,9.37,0.0,0.1875,0.125,-43.0625,30.6875,-61.6875,0.0,0.0,0.0,1.0,0.0,-0.000183,0.0,-0.62,2.78,-0.45,0.0,0.0,9.8,30
1.918935,-0.38,2.82,9.34,-0.0625,0.0,0.25,-43.0625,30.6875,-61.6875,0.0,0.0,0.0,1.0,0.0,-0.000183,0.0,-0.38,2.82,-0.45,0.0,0.0,9.8,30
1.9299,-0.21,2.82,9.34,-0.1875,-0.125,0.125,-43.0625,30.6875,-61.6875,0.0,0.0,0.0,1.0,0.0,-0.000183,0.0,0.27,2.83,-0.45,0.0,0.0,9.8,30
1.940865,0.27,2.83,9.34,-0.125,-0.25,0.25,-43.0625,30.6875,-61.6875,0.0,0.0,0.0,1.0,0.0,-0.000183,0.0,0.41,2.81,-0.49,0.0,0.0,9.8,30
1.951831,0.42,2.81,9.3,-0.25,-0.1875,0.1875,-35.1875,30.25,-60.5,0.0,0.0,0.0,1.0,0.0,-0.000183,0.0,0.52,2.82,-0.5,0.0,0.0,9.8,31
1.962796,0.52,2.82,9.3,-0.0625,-0.375,0.3125,-35.1875,30.25,-60.5,0.0,0.0,0.0,1.0,0.0,-0.000183,0.0,0.59,2.82,-0.5,0.0,0.0,9.8,31
1.973761,0.59,2.82,9.3,-0.1875,-0.5,0.1875,-35.1875,30.25,-60.5,0.0,0.0,0.0,1.0,0.0,-0.000183,0.0,0.51,2.82,-0.47,0.0,0.0,9.8,31
1.984727,0.51,2.82,9.32,-0.25,-0.25,0.125,-35.1875,30.25,-60.5,0.0,0.0,0.0,1.0,0.0,-0.000183,0.0,0.38,2.81,-0.46,0.0,0.0,9.8,31
1.995692,0.39,2.81,9.33,-0.1875,-0.0625,0.1875,-23.1875,28.75,-60.0625,0.0,0.0,0.0,1.0,0.0,-0.000183,0.0,0.21,2.82,-0.49,0.0,0.0,9.8,31
2.006657,0.22,2.82,9.31,0.0,0.0,0.0625,-23.1875,28.75,-60.0625,0.0,0.0,0.0,1.0,0.0,-0.000183,0.0,-0.02,2.82,-0.48,0.0,0.0,9.8,31
2.017623,-0.01,2.82,9.31,-0.0625,-0.25,0.375,-23.1875,28.75,-60.0625,0.0,0.0,0.0,1.0,0.0,-0.000183,0.0,-0.44,2.82,-0.44,0.0,0.0,9.8,31
2.028588,-0.44,2.82,9.36,-0.0625,-0.375,0.25,-23.1875,28.75,-60.0625,0.0,0.0,0.0,1.0,0.0,-0.000183,0.0,-0.7,2.82,-0.44,0.0,0.0,9.8,31
2.039553,-0.69,2.82,9.36,-0.125,-0.1875,0.25,-23.1875,28.75,-60.0625,0.0,0.0,0.0,1.0,0.0,-0.000183,0.0,-0.91,2.79,-0.44,0.0,0.0,9.8,31
2.050519,-0.91,2.79,9.36,0.0,0.125,0.1875,-30.25,31.0625,-63.375,0.0,0.0,0.0,1.0,0.0,-0.000183,0.0,-1.11,2.78,-0.41,0.0,0.0,9.8,31
2.061484,-1.11,2.78,9.39,0.0,-0.25,0.1875,-30.25,31.0625,-63.375,0.0,0.0,0.0,1.0,0.0,-0.000183,0.0,-1.33,2.76,-0.43,0.0,0.0,9.8,31
2.072449,-1.33,2.76,9.37,-0.125,-0.1875,0.25,-30.25,31.0625,-63.375,0.0,0.0,0.0,1.0,0.0,-0.000183,0.0,-1.38,2.8,-0.44,0.0,0.0,9.8,31
2.083415,-1.38,2.8,9.36,-0.125,-0.1875,0.25,-30.25,31.0625,-63.375,0.0,0.0,0.0,1.0,0.0,-0.000183,0.0,-1.35,2.77,-0.41,0.0,0.0,9.8,31
2.09438,-1.35,2.77,9.39,-0.0625,-0.4375,0.3125,-30.25,31.0625,-63.375,0.0,0.0,0.0,1.0,0.0,-0.000183,0.0,-1.09,2.78,-0.42,0.0,0.0,9.8,31
2.105345,-1.08,2.78,9.38,-0.0625,-0.4375,0.125,-43.0625,31.375,-60.5,0.0,0.0,0.0,1.0,0.0,-0.000183,0.0,-0.87,2.78,-0.45,0.0,0.0,9.8,31
2.116311,-0.87,2.78,9.35,-0.0625,-0.4375,0.125,-43.0625,31.375,-60.5,0.0,0.0,0.0,1.0,0.0,-0.000183,0.0,-0.64,2.79,-0.42,0.0,0.0,9.8,31
2.127276,-0.64,2.79,9.38,-0.125,-0.375,0.25,-43.0625,31.375,-60.5,0.0,0.0,0.0,1.0,0.0,-0.000183,0.0,-0.4,2.82,-0.45,0.0,0.0,9.8,31
2.138241,-0.4,2.82,9.35,0.25,-0.125,0.25,-43.0625,31.375,-60.5,0.0,0.0,0.0,1.0,0.0,-0.000183,0.0,0.0,2.82,-0.44,0.0,0.0,9.8,31
2.149207,0.0,2.82,9.36,-0.125,-0.375,0.1875,-43.0625,31.375,-60.5,0.0,0.0,0.0,1.0,0.0,-0.000183,0.0,0.23,2.81,-0.45,0.0,0.0,9.8,31
2.160172,0.23,2.81,9.34,0.0,-0.5,0.25,-36.25,31.75,-60.5,0.0,0.0,0.0,1.0,0.0,-0.000183,0.0,0.38,2.82,-0.5,0.0,0.0,9.8,31
2.171137,0.39,2.82,9.3,-0.1875,-0.1875,0.1875,-36.25,31.75,-60.5,0.0,0.0,0.0,1.0,0.0,-0.000183,0.0,0.5,2.83,-0.49,0.0,0.0,9.8,31
2.182103,0.58,2.81,9.33,-0.25,-0.375,0.1875,-36.25,31.75,-60.5,0.0,0.0,0.0,1.0,0.0,-0.000183,0.0,0.58,2.81,-0.47,0.0,0.0,9.8,31
2.193068,0.52,2.82,9.31,-0.0625,-0.5625,0.25,-36.25,31.75,-60.5,0.0,0.0,0.0,1.0,0.0,-0.000183,0.0,0.41,2.83,-0.47,0.0,0.0,9.8,31
2.204033,0.41,2.83,9.33,-0.25,-0.3125,0.1875,-36.25,31.75,-60.5,0.0,0.0,0.0,1.0,0.0,-0.000183,0.0,0.23,2.81,-0.46,0.0,0.0,9.8,31
2.214999,0.23,2.81,9.34,-0.1875,-0.3125,0.125,-22.375,28.375,-59.6875,0.0,0.0,0.0,1.0,0.0,-0.000183,0.0,-0.24,2.79,-0.46,0.0,0.0,9.8,31
2.225964,-0.23,2.79,9.34,-0.25,-0.1875,0.1875,-22.375,28.375,-59.6875,0.0,0.0,0.0,1.0,0.0,-0.000183,0.0,-0.42,2.8,-0.45,0.0,0.0,9.8,31
2.236929,-0.42,2.8,9.35,-0.0625,-0.1875,0.125,-22.375,28.375,-59.6875,0.0,0.0,0.0,1.0,0.0,-0.000183,0.0,-0.65,2.79,-0.43,0.0,0.0,9.8,31
2.247895,-0.65,2.79,9.37,-0.3125,-0.3125,0.0625,-22.375,28.375,-59.6875,0.0,0.0,0.0,1.0,0.0,-0.000183,0.0,-1.09,2.81,-0.41,0.0,0.0,9.8,31
2.25886,-1.09,2.81,9.39,-0.125,-0.375,0.375,-31.375,31.0625,-60.875,0.0,0.0,0.0,1.0,0.0,-0.000183,0.0,-1.25,2.8,-0.4,0.0,0.0,9.8,31
2.269825,-1.25,2.8,9.4,-0.1875,-0.375,0.1875,-31.375,31.0625,-60.875,0.0,0.0,0.0,1.0,0.0,-0.000183,0.0,-1.35,2.77,-0.41,0.0,0.0,9.8,31
2.280791,-1.35,2.77,9.39,-0.125,-0.0625,0.1875,-31.375,31.0625,-60.875,0.0,0.0,0.0,1.0,0.0,-0.000183,0.0,-1.37,2.77,-0.44,0.0,0.0,9.8,31
2.291756,-1.37,2.77,9.36,-0.0625,-0.1875,0.3125,-31.375,31.0625,-60.875,0.0,0.0,0.0,1.0,0.0,-0.000183,0.0,-1.25,2.79,-0.43,0.0,0.0,9.8,31
2.302722,-1.24,2.79,9.37,0.0,-0.125,0.125,-31.375,31.0625,-60.875,0.0,0.0,0.0,1.0,0.0,-0.000183,0.0,-1.12,2.79,-0.43,0.0,0.0,9.8,31
2.313687,-1.12,2.79,9.37,0.0,-0.3125,0.25,-43.375,31.75,-61.25,0.0,0.0,0.0,1.0,0.0,-0.000183,0.0,-0.92,2.79,-0.43,0.0,0.0,9.8,31
2.324652,-0.91,2.79,9.37,-0.3125,-0.125,0.125,-43.375,31.75,-61.25,0.0,0.0,0.0,1.0,0.0,-0.000183,0.0,-0.69,2.77,-0.45,0.0,0.0,9.8,31
2.335618,-0.69,2.77,9.35,-0.125,-0.1875,0.3125,-43.375,31.75,-61.25,0.0,0.0,0.0,1.0,0.0,-0.000183,0.0,-0.26,2.78,-0.45,0.0,0.0,9.8,31
2.346583,-0.26,2.78,9.35,-0.1875,-0.25,0.125,-43.375,31.75,-61.25,0.0,0.0,0.0,1.0,0.0,-0.000183,0.0,-0.01,2.81,-0.45,0.0,0.0,9.8,31
2.357548,0.0,2.81,9.35,-0.25,-0.125,0.1875,-43.375,31.75,-61.25,0.0,0.0,0.0,1.0,0.0,-0.000183,0.0,0.2,2.81,-0.43,0.0,0.0,9.8,31
2.368514,0.2,2.81,9.37,-0.1875,-0.1875,0.1875,-34.0625,30.6875,-61.25,0.0,0.0,0.0,1.0,0.0,-0.000183,0.0,0.37,2.82,-0.44,0.0,0.0,9.8,31
2.379479,0.37,2.82,9.36,-0.5625,-0.375,0.25,-34.0625,30.6875,-61.25,0.0,0.0,0.0,1.0,0.0,-0.000183,0.0,0.56,2.79,-0.48,0.0,0.0,9.8,31
2.390444,0.56,2.79,9.31,-0.25,-0.1875,0.125,-34.0625,30.6875,-61.25,0.0,0.0,0.0,1.0,0.0,-0.000183,0.0,0.61,2.83,-0.49,0.0,0.0,9.8,31
2.40141,0.61,2.83,9.3,0.0625,-0.125,0.1875,-34.0625,30.6875,-61.25,0.0,0.0,0.0,1.0,0.0,-0.000183,0.0,0.54,2.81,-0.49,0.0,0.0,9.8,31
2.412375,0.54,2.81,9.31,-0.125,0.0625,0.1875,-34.0625,30.6875,-61.25,0.0,0.0,0.0,1.0,0.0,-0.000183,0.0,0.41,2.82,-0.49,0.0,0.0,9.8,31
2.42334,0.42,2.82,9.3,-0.125,-0.1875,0.1875,-20.5625,29.1875,-64.5625,0.0,0.0,0.0,1.0,0.0,-0.000183,0.0,0.01,2.82,-0.43,0.0,0.0,9.8,31
2.434306,0.01,2.82,9.37,-0.1875,-0.3125,0.1875,-20.5625,29.1875,-64.5625,0.0,0.0,0.0,1.0,0.0,-0.000183,0.0,-0.21,2.81,-0.44,0.0,0.0,9.8,31
2.445271,-0.38,2.82,9.35,-0.125,-0.1875,0.1875,-20.5625,29.1875,-64.5625,0.0,0.0,0.0,1.0,0.0,-0.000183,0.0,-0.39,2.82,-0.45,0.0,0.0,9.8,31
2.456236,-0.88,2.8,9.36,-0.125,0.0625,0.1875,-20.5625,29.1875,-64.5625,0.0,0.0,0.0,1.0,0.0,-0.000183,0.0,-1.07,2.78,-0.43,0.0,0.0,9.8,31
2.467202,-1.07,2.78,9.37,-0.1875,-0.3125,0.25,-20.5625,29.1875,-64.5625,0.0,0.0,0.0,1.0,0.0,-0.000183,0.0,-1.07,2.78,-0.43,0.0,0.0,9.8,31
2.478167,-1.21,2.79,9.39,0.0,0.125,0.125,-29.875,29.1875,-65.0,0.0,0.0,0.0,1.0,0.0,-0.000183,0.0,-1.32,2.8,-0.42,0.0,0.0,9.8,31
2.489132,-1.32,2.8,9.38,-0.125,-0.3125,0.125,-29.875,29.1875,-65.0,0.0,0.0,0.0,1.0,0.0,-0.000183,0.0,-1.35,2.78,-0.43,0.0,0.0,9.8,31
2.500098,-1.35,2.78,9.37,-0.0625,-0.4375,0.25,-29.875,29.1875,-65.0,0.0,0.0,0.0,1.0,0.0,-0.000183,0.0,-1.29,2.77,-0.41,0.0,0.0,9.8,31
2.511063,-1.29,2.77,9.39,-0.3125,-0.5,0.1875,-29.875,29.1875,-65.0,0.0,0.0,0.0,1.0,0.0,-0.000183,0.0,-1.12,2.77,-0.4,0.0,0.0,9.8,31
2.522028,-1.12,2.77,9.4,0.0,-0.25,0.3125,-41.5625,29.875,-64.5625,0.0,0.0,0.0,1.0,0.0,-0.000183,0.0,-0.95,2.8,-0.44,0.0,0.0,9.8,31
2.532994,-0.47,2.79,9.37,0.0625,0.0625,0.0625,-41.5625,29.875,-64.5625,0.0,0.0,0.0,1.0,0.0,-0.000183,0.0,-0.48,2.79,-0.43,0.0,0.0,9.8,31
2.543959,-0.26,2.81,9.35,-0.125,-0.1875,0.25,-41.5625,29.875,-64.5625,0.0,0.0,0.0,1.0,0.0,-0.000183,0.0,-0.06,2.82,-0.48,0.0,0.0,9.8,31
2.554924,-0.05,2.82,9.32,-0.25,-0.5,0.125,-41.5625,29.875,-64.5625,0.0,0.0,0.0,1.0,0.0,-0.000183,0.0,0.17,2.82,-0.46,0.0,0.0,9.8,31
2.56589,0.17,2.82,9.33,0.0,-0.25,0.3125,-41.5625,29.875,-64.5625,0.0,0.0,0.0,1.0,0.0,-0.000183,0.0,0.17,2.82,-0.46,0.0,0.0,9.8,31
2.576855,0.5,2.83,9.33,-0.0625,-0.3125,0.1875,-32.5625,29.875,-61.75,0.0,0.0,0.0,1.0,0.0,-0.000183,0.0,0.58,2.83,-0.48,0.0,0.0,9.8,31
2.58782,0.58,2.83,9.31,-0.25,-0.25,0.1875,-32.5625,29.875,-61.75,0.0,0.0,0.0,1.0,0.0,-0.000183,0.0,0.59,2.84,-0.48,0.0,0.0,9.8,31
2.598786,0.6,2.84,9.32,-0.125,-0.125,0.125,-32.5625,29.875,-61.75,0.0,0.0,0.0,1.0,0.0,-0.000183,0.0,0.42,2.82,-0.45,0.0,0.0,9.8,31
2.609751,0.43,2.82,9.35,-0.3125,-0.25,0.125,-32.5625,29.875,-61.75,0.0,0.0,0.0,1.0,0.0,-0.000183,0.0,0.27,2.81,-0.44,0.0,0.0,9.8,31
2.620716,0.27,2.81,9.36,-0.25,-0.1875,0.0625,-23.1875,28.75,-59.25,0.0,0.0,0.0,1.0,0.0,-0.000183,0.0,0.06,2.79,-0.44,0.0,0.0,9.8,31
2.631682,-0.17,2.8,9.35,-0.125,-0.0625,0.1875,-23.1875,28.75,-59.25,0.0,0.0,0.0,1.0,0.0,-0.000183,0.0,-0.18,2.8,-0.45,0.0,0.0,9.8,31
2.642647,-0.59,2.8,9.38,-0.125,0.125,0.1875,-23.1875,28.75,-59.25,0.0,0.0,0.0,1.0,0.0,-0.000183,0.0,-0.85,2.79,-0.43,0.0,0.0,9.8,31
2.653612,-0.84,2.79,9.37,-0.25,-0.0625,0.125,-23.1875,28.75,-59.25,0.0,0.0,0.0,1.0,0.0,-0.000183,0.0,-1.02,2.8,-0.41,0.0,0.0,9.8,31
2.664578,-1.01,2.8,9.39,-0.125,-0.25,0.0625,-23.1875,28.75,-59.25,0.0,0.0,0.0,1.0,0.0,-0.000183,0.0,-1.02,2.8,-0.41,0.0,0.0,9.8,31
2.675543,-1.2,2.77,9.38,-0.0625,-0.25,0.1875,-32.1875,30.6875,-61.25,0.0,0.0,0.0,1.0,0.0,-0.000183,0.0,-1.37,2.8,-0.42,0.0,0.0,9.8,31
2.686508,-1.36,2.8,9.38,0.125,-0.125,0.25,-32.1875,30.6875,-61.25,0.0,0.0,0.0,1.0,0.0,-0.000183,0.0,-1.37,2.79,-0.42,0.0,0.0,9.8,31
2.697474,-1.37,2.79,9.38,0.0,-0.0625,0.25,-32.1875,30.6875,-61.25,0.0,0.0,0.0,1.0,0.0,-0.000183,0.0,-1.26,2.78,-0.43,0.0,0.0,9.8,31
2.708439,-1.26,2.78,9.37,-0.0625,-0.125,0.1875,-32.1875,30.6875,-61.25,0.0,0.0,0.0,1.0,0.0,-0.000183,0.0,-1.15,2.78,-0.41,0.0,0.0,9.8,31
2.719404,-1.14,2.78,9.39,-0.1875,-0.0625,0.125,-42.25,29.875,-63.75,0.0,0.0,0.0,1.0,0.0,-0.000183,0.0,-0.74,2.8,-0.45,0.0,0.0,9.8,31
2.73037,-0.73,2.8,9.35,-0.0625,-0.375,0.1875,-42.25,29.875,-63.75,0.0,0.0,0.0,1.0,0.0,-0.000183,0.0,-0.48,2.79,-0.47,0.0,0.0,9.8,31
2.741335,-0.47,2.79,9.33,0.125,-0.25,0.25,-42.25,29.875,-63.75,0.0,0.0,0.0,1.0,0.0,-0.000183,0.0,-0.29,2.8,-0.48,0.0,0.0,9.8,31
2.7523,-0.28,2.8,9.31,-0.0625,-0.375,0.3125,-42.25,29.875,-63.75,0.0,0.0,0.0,1.0,0.0,-0.000183,0.0,-0.08,2.81,-0.47,0.0,0.0,9.8,31
2.763266,-0.08,2.81,9.33,-0.0625,-0.125,0.125,-42.25,29.875,-63.75,0.0,0.0,0.0,1.0,0.0,-0.000183,0.0,0.34,2.81,-0.48,0.0,0.0,9.8,31
2.774231,0.34,2.81,9.31,-0.0625,-0.375,0.1875,-33.25,31.0625,-60.875,0.0,0.0,0.0,1.0,0.0,-0.000183,0.0,0.48,2.82,-0.46,0.0,0.0,9.8,31
2.785196,0.48,2.82,9.33,-0.0625,-0.25,0.1875,-33.25,31.0625,-60.875,0.0,0.0,0.0,1.0,0.0,-0.000183,0.0,0.56,2.82,-0.47,0.0,0.0,9.8,31
2.796162,0.56,2.83,9.34,0.0,-0.25,0.25,-33.25,31.0625,-60.875,0.0,0.0,0.0,1.0,0.0,-0.000183,0.0,0.55,2.83,-0.46,0.0,0.0,9.8,31
2.807127,0.46,2.84,9.31,-0.125,-0.1875,0.375,-33.25,31.0625,-60.875,0.0,0.0,0.0,1.0,0.0,-0.000183,0.0,0.29,2.82,-0.45,0.0,0.0,9.8,31
2.818093,0.3,2.82,9.34,-0.25,-0.25,0.25,-33.25,31.0625,-60.875,0.0,0.0,0.0,1.0,0.0,-0.000183,0.0,0.07,2.81,-0.46,0.0,0.0,9.8,31
2.829058,0.07,2.81,9.34,0.0625,-0.3125,0.1875,-23.875,29.875,-60.0625,0.0,0.0,0.0,1.0,0.0,-0.000183,0.0,-0.34,2.82,-0.47,0.0,0.0,9.8,31
2.840023,-0.33,2.82,9.33,-0.0625,-0.125,0.3125,-23.875,29.875,-60.0625,0.0,0.0,0.0,1.0,0.0,-0.000183,0.0,-0.56,2.79,-0.45,0.0,0.0,9.8,31
2.850989,-0.56,2.79,9.34,0.0,-0.0625,0.3125,-23.875,29.875,-60.0625,0.0,0.0,0.0,1.0,0.0,-0.000183,0.0,-0.82,2.81,-0.45,0.0,0.0,9.8,31
2.861954,-0.82,2.81,9.35,0.0,-0.1875,0.1875,-23.875,29.875,-60.0625,0.0,0.0,0.0,1.0,0.0,-0.000183,0.0,-1.01,2.78,-0.43,0.0,0.0,9.8,31
2.872919,-1.01,2.78,9.37,-0.1875,-0.1875,0.25,-31.75,30.6875,-60.0625,0.0,0.0,0.0,1.0,0.0,-0.000183,0.0,-1.31,2.78,-0.4,0.0,0.0,9.8,31
2.883885,-1.31,2.78,9.39,-0.25,-0.4375,0.3125,-31.75,30.6875,-60.0625,0.0,0.0,0.0,1.0,0.0,-0.000183,0.0,-1.36,2.78,-0.42,0.0,0.0,9.8,31
2.89485,-1.36,2.78,9.38,-0.3125,-0.375,0.1875,-31.75,30.6875,-60.0625,0.0,0.0,0.0,1.0,0.0,-0.000183,0.0,-1.39,2.78,-0.42,0.0,0.0,9.8,31
2.905815,-1.38,2.78,9.38,-0.3125,-0.3125,0.125,-31.75,30.6875,-60.0625,0.0,0.0,0.0,1.0,0.0,-0.000183,0.0,-1.31,2.77,-0.42,0.0,0.0,9.8,31
2.916781,-1.3,2.77,9.38,-0.125,-0.1875,0.25,-31.75,30.6875,-60.0625,0.0,0.0,0.0,1.0,0.0,-0.000183,0.0,-0.98,2.82,-0.43,0.0,0.0,9.8,31
2.927746,-0.98,2.82,9.37,-0.3125,-0.4375,0.3125,-43.375,30.25,-62.5625,0.0,0.0,0.0,1.0,0.0,-0.000183,0.0,-0.77,2.8,-0.44,0.0,0.0,9.8,31
2.938711,-0.51,2.79,9.36,-0.125,-0.5,0.25,-43.375,30.25,-62.5625,0.0,0.0,0.0,1.0,0.0,-0.000183,0.0,-0.52,2.79,-0.44,0.0,0.0,9.8,31
2.949677,-0.11,2.8,9.32,-0.0625,-0.125,0.0625,-43.375,30.25,-62.5625,0.0,0.0,0.0,1.0,0.0,-0.000183,0.0,0.13,2.81,-0.44,0.0,0.0,9.8,31
2.960642,0.13,2.81,9.36,-0.0625,-0.125,0.1875,-43.375,30.25,-62.5625,0.0,0.0,0.0,1.0,0.0,-0.000183,0.0,0.32,2.82,-0.47,0.0,0.0,9.8,31
2.971607,0.32,2.82,9.32,0.0625,-0.3125,0.125,-43.375,30.25,-62.5625,0.0,0.0,0.0,1.0,0.0,-0.000183,0.0,0.32,2.82,-0.47,0.0,0.0,9.8,31
2.982573,0.46,2.83,9.33,-0.1875,-0.625,0.125,-32.875,30.25,-61.25,0.0,0.0,0.0,1.0,0.0,-0.000244,0.0,0.59,2.82,-0.49,0.0,0.0,9.8,31
2.993538,0.59,2.82,9.3,-0.125,-0.1875,0.1875,-32.875,30.25,-61.25,0.0,0.0,0.0,1.0,0.0,-0.000244,0.0,0.57,2.81,-0.48,0.0,0.0,9.8,31
3.004503,0.57,2.81,9.32,0.0625,-0.125,0.3125,-32.875,30.25,-61.25,0.0,0.0,0.0,1.0,0.0,-0.000244,0.0,0.47,2.81,-0.48,0.0,0.0,9.8,31
3.015469,0.47,2.81,9.31,0.0,0.0,0.1875,-32.875,30.25,-61.25,0.0,0.0,0.0,1.0,0.0,-0.000244,0.0,0.32,2.8,-0.46,0.0,0.0,9.8,31
3.026434,0.32,2.8,9.33,-0.3125,-0.25,0.1875,-22.375,29.5625,-59.6875,0.0,0.0,0.0,1.0,0.0,-0.000244,0.0,-0.1,2.82,-0.45,0.0,0.0,9.8,31
3.037399,-0.34,2.81,9.33,-0.25,-0.4375,0.0625,-22.375,29.5625,-59.6875,0.0,0.0,0.0,1.0,0.0,-0.000244,0.0,-0.34,2.81,-0.47,0.0,0.0,9.8,31
3.048365,-0.54,2.81,9.36,-0.1875,-0.375,0.125,-22.375,29.5625,-59.6875,0.0,0.0,0.0,1.0,0.0,-0.000244,0.0,-0.81,2.81,-0.46,0.0,0.0,9.8,31
3.05933,-0.8,2.81,9.34,-0.125,-0.25,0.25,-22.375,29.5625,-59.6875,0.0,0.0,0.0,1.0,0.0,-0.000244,0.0,-1.18,2.79,-0.42,0.0,0.0,9.8,31
3.070295,-1.17,2.79,9.38,0.0625,-0.1875,0.1875,-22.375,29.5625,-59.6875,0.0,0.0,0.0,1.0,0.0,-0.000244,0.0,-1.18,2.79,-0.42,0.0,0.0,9.8,31
3.081261,-1.31,2.8,9.42,-0.25,-0.5,0.25,-33.25,30.6875,-61.375,0.0,0.0,0.0,1.0,0.0,-0.000244,0.0,-1.37,2.81,-0.42,0.0,0.0,9.8,31
3.092226,-1.37,2.81,9.38,0.0625,0.0625,0.25,-33.25,30.6875,-61.375,0.0,0.0,0.0,1.0,0.0,-0.000244,0.0,-1.37,2.77,-0.43,0.0,0.0,9.8,31
3.103191,-1.36,2.77,9.37,0.0,-0.25,0.125,-33.25,30.6875,-61.375,0.0,0.0,0.0,1.0,0.0,-0.000244,0.0,-1.19,2.79,-0.42,0.0,0.0,9.8,31
3.114157,-1.18,2.79,9.38,-0.125,-0.125,0.1875,-33.25,30.6875,-61.375,0.0,0.0,0.0,1.0,0.0,-0.000244,0.0,-1.03,2.8,-0.4,0.0,0.0,9.8,31
3.125122,-1.02,2.8,9.39,-0.1875,-0.4375,0.1875,-44.1875,29.875,-59.25,0.0,0.0,0.0,1.0,0.0,-0.000244,0.0,-0.84,2.81,-0.4,0.0,0.0,9.8,31
3.136087,-0.83,2.81,9.39,0.0625,-0.0625,0.25,-44.1875,29.875,-59.25,0.0,0.0,0.0,1.0,0.0,-0.000244,0.0,-0.34,2.82,-0.46,0.0,0.0,9.8,31
3.147053,-0.34,2.82,9.34,-0.0625,-0.4375,0.1875,-44.1875,29.875,-59.25,0.0,0.0,0.0,1.0,0.0,-0.000244,0.0,-0.13,2.82,-0.47,0.0,0.0,9.8,31
3.158018,-0.12,2.82,9.33,-0.125,-0.25,0.25,-44.1875,29.875,-59.25,0.0,0.0,0.0,1.0,0.0,-0.000244,0.0,0.09,2.81,-0.45,0.0,0.0,9.8,31
3.168983,0.09,2.81,9.35,-0.1875,-0.25,0.1875,-44.1875,29.875,-59.25,0.0,0.0,0.0,1.0,0.0,-0.000244,0.0,0.28,2.8,-0.44,0.0,0.0,9.8,31
3.179949,0.29,2.8,9.36,-0.25,-0.375,0.1875,-35.1875,31.0625,-60.0625,0.0,0.0,0.0,1.0,0.0,-0.000244,0.0,0.55,2.81,-0.46,0.0,0.0,9.8,31
3.190914,0.56,2.81,9.34,-0.25,-0.5,0.0625,-35.1875,31.0625,-60.0625,0.0,0.0,0.0,1.0,0.0,-0.000244,0.0,0.59,2.83,-0.51,0.0,0.0,9.8,31
3.201879,0.6,2.83,9.29,0.0,-0.25,0.25,-35.1875,31.0625,-60.0625,0.0,0.0,0.0,1.0,0.0,-0.000244,0.0,0.56,2.83,-0.48,0.0,0.0,9.8,31
3.212845,0.56,2.83,9.31,0.0625,-0.1875,0.25,-35.1875,31.0625,-60.0625,0.0,0.0,0.0,1.0,0.0,-0.000244,0.0,0.48,2.82,-0.48,0.0,0.0,9.8,31
3.22381,0.48,2.82,9.32,-0.0625,-0.1875,0.375,-35.1875,31.0625,-60.0625,0.0,0.0,0.0,1.0,0.0,-0.000244,0.0,0.15,2.8,-0.45,0.0,0.0,9.8,31
3.234775,0.15,2.8,9.35,-0.125,-0.4375,0.1875,-22.375,29.5625,-60.0625,0.0,0.0,0.0,1.0,0.0,-0.000244,0.0,-0.08,2.78,-0.45,0.0,0.0,9.8,31
3.245741,-0.07,2.78,9.35,-0.3125,-0.1875,0.1875,-22.375,29.5625,-60.0625,0.0,0.0,0.0,1.0,0.0,-0.000244,0.0,-0.32,2.81,-0.43,0.0,0.0,9.8,31
3.256706,-0.32,2.81,9.37,-0.1875,-0.5625,0.25,-22.375,29.5625,-60.0625,0.0,0.0,0.0,1.0,0.0,-0.000244,0.0,-0.49,2.82,-0.43,0.0,0.0,9.8,31
3.267671,-0.48,2.82,9.37,-0.0625,-0.0625,0.3125,-22.375,29.5625,-60.0625,0.0,0.0,0.0,1.0,0.0,-0.000244,0.0,-0.98,2.81,-0.44,0.0,0.0,9.8,31
3.278637,-0.98,2.81,9.36,-0.0625,-0.25,0.25,-22.375,29.5625,-60.0625,0.0,0.0,0.0,1.0,0.0,-0.000244,0.0,-1.16,2.78,-0.42,0.0,0.0,9.8,31
3.289602,-1.15,2.78,9.38,-0.125,-0.1875,0.1875,-33.6875,30.25,-61.375,0.0,0.0,0.0,1.0,0.0,-0.000244,0.0,-1.28,2.77,-0.4,0.0,0.0,9.8,31
3.300568,-1.27,2.77,9.4,0.0625,0.0625,0.1875,-33.6875,30.25,-61.375,0.0,0.0,0.0,1.0,0.0,-0.000244,0.0,-1.38,2.79,-0.42,0.0,0.0,9.8,31
3.311533,-1.31,2.8,9.36,-0.0625,-0.0625,0.125,-33.6875,30.25,-61.375,0.0,0.0,0.0,1.0,0.0,-0.000244,0.0,-1.32,2.8,-0.44,0.0,0.0,9.8,31
3.322498,-1.19,2.78,9.36,0.0625,-0.1875,0.375,-33.6875,30.25,-61.375,0.0,0.0,0.0,1.0,0.0,-0.000244,0.0,-1.05,2.79,-0.42,0.0,0.0,9.8,31
3.333464,-1.04,2.79,9.38,0.0625,-0.125,0.25,-33.6875,30.25,-61.375,0.0,0.0,0.0,1.0,0.0,-0.000244,0.0,-0.59,2.79,-0.45,0.0,0.0,9.8,31
3.344429,-0.59,2.79,9.35,0.0625,-0.1875,0.125,-40.375,31.375,-65.875,0.0,0.0,0.0,1.0,0.0,-0.000244,0.0,-0.35,2.8,-0.45,0.0,0.0,9.8,31
3.355394,-0.34,2.8,9.35,-0.125,0.0,0.25,-40.375,31.375,-65.875,0.0,0.0,0.0,1.0,0.0,-0.000244,0.0,-0.18,2.79,-0.49,0.0,0.0,9.8,31
3.36636,-0.18,2.79,9.31,0.0,-0.1875,0.1875,-40.375,31.375,-65.875,0.0,0.0,0.0,1.0,0.0,-0.000244,0.0,0.08,2.81,-0.47,0.0,0.0,9.8,31
3.377325,0.08,2.81,9.33,-0.125,-0.125,0.1875,-40.375,31.375,-65.875,0.0,0.0,0.0,1.0,0.0,-0.000244,0.0,0.43,2.81,-0.48,0.0,0.0,9.8,31
3.38829,0.44,2.81,9.32,-0.125,-0.125,0.1875,-33.25,30.6875,-60.875,0.0,0.0,0.0,1.0,0.0,-0.000244,0.0,0.52,2.81,-0.44,0.0,0.0,9.8,31
3.399256,0.59,2.81,9.29,-0.0625,-0.1875,0.25,-33.25,30.6875,-60.875,0.0,0.0,0.0,1.0,0.0,-0.000244,0.0,0.58,2.81,-0.5,0.0,0.0,9.8,31
3.410221,0.58,2.81,9.31,0.0625,-0.25,0.3125,-33.25,30.6875,-60.875,0.0,0.0,0.0,1.0,0.0,-0.000244,0.0,0.35,2.82,-0.46,0.0,0.0,9.8,31
3.421186,0.35,2.82,9.33,-0.125,-0.1875,0.1875,-33.25,30.6875,-60.875,0.0,0.0,0.0,1.0,0.0,-0.000244,0.0,0.17,2.82,-0.44,0.0,0.0,9.8,31
3.432152,0.18,2.82,9.36,0.0,0.0,0.1875,-33.25,30.6875,-60.875,0.0,0.0,0.0,1.0,0.0,-0.000244,0.0,-0.07,2.81,-0.45,0.0,0.0,9.8,31
3.443117,-0.28,2.8,9.34,-0.25,-0.25,0.125,-23.5625,28.75,-58.875,0.0,0.0,0.0,1.0,0.0,-0.000244,0.0,-0.29,2.8,-0.45,0.0,0.0,9.8,31
3.454082,-0.73,2.79,9.36,0.0625,-0.25,0.125,-23.5625,28.75,-58.875,0.0,0.0,0.0,1.0,0.0,-0.000244,0.0,-0.95,2.79,-0.42,0.0,0.0,9.8,31
3.465048,-0.95,2.79,9.38,-0.3125,-0.375,0.1875,-23.5625,28.75,-58.875,0.0,0.0,0.0,1.0,0.0,-0.000244,0.0,-1.14,2.8,-0.44,0.0,0.0,9.8,31
3.476013,-1.14,2.8,9.36,-0.3125,-0.3125,0.125,-23.5625,28.75,-58.875,0.0,0.0,0.0,1.0,0.0,-0.000244,0.0,-1.14,2.8,-0.44,0.0,0.0,9.8,31
3.486978,-1.35,2.78,9.38,-0.1875,-0.3125,0.125,-33.25,31.0625,-60.875,0.0,0.0,0.0,1.0,0.0,-0.000244,0.0,-1.38,2.8,-0.41,0.0,0.0,9.8,31
3.497944,-1.38,2.8,9.39,0.125,-0.125,0.1875,-33.25,31.0625,-60.875,0.0,0.0,0.0,1.0,0.0,-0.000244,0.0,-1.34,2.8,-0.41,0.0,0.0,9.8,31
3.508909,-1.34,2.8,9.39,0.125,-0.4375,0.25,-33.25,31.0625,-60.875,0.0,0.0,0.0,1.0,0.0,-0.000244,0.0,-1.24,2.78,-0.43,0.0,0.0,9.8,31
3.519874,-1.24,2.78,9.37,0.0625,-0.0625,0.1875,-33.25,31.0625,-60.875,0.0,0.0,0.0,1.0,0.0,-0.000244,0.0,-0.85,2.78,-0.43,0.0,0.0,9.8,31
3.53084,-0.85,2.78,9.37,-0.125,0.0,0.125,-43.0625,31.375,-59.6875,0.0,0.0,0.0,1.0,0.0,-0.000244,0.0,-0.63,2.8,-0.44,0.0,0.0,9.8,31
3.541805,-0.36,2.82,9.37,-0.1875,-0.0625,0.25,-43.0625,31.375,-59.6875,0.0,0.0,0.0,1.0,0.0,-0.000244,0.0,-0.37,2.82,-0.43,0.0,0.0,9.8,31
3.55277,-0.19,2.8,9.34,-0.125,-0.1875,0.25,-43.0625,31.375,-59.6875,0.0,0.0,0.0,1.0,0.0,-0.000244,0.0,0.25,2.83,-0.47,0.0,0.0,9.8,31
3.563736,0.26,2.83,9.32,-0.0625,0.125,0.125,-43.0625,31.375,-59.6875,0.0,0.0,0.0,1.0,0.0,-0.000244,0.0,0.43,2.82,-0.46,0.0,0.0,9.8,31
3.574701,0.43,2.82,9.33,-0.1875,-0.375,0.125,-43.0625,31.375,-59.6875,0.0,0.0,0.0,1.0,0.0,-0.000244,0.0,0.43,2.82,-0.46,0.0,0.0,9.8,31
3.585666,0.51,2.83,9.34,0.0,-0.3125,0.25,-32.5625,29.875,-60.1875,0.0,0.0,0.0,1.0,0.0,-0.000244,0.0,0.59,2.82,-0.46,0.0,0.0,9.8,31
3.596632,0.6,2.82,9.34,0.0,-0.1875,0.125,-32.5625,29.875,-60.1875,0.0,0.0,0.0,1.0,0.0,-0.000244,0.0,0.51,2.81,-0.48,0.0,0.0,9.8,31
3.607597,0.52,2.81,9.32,0.0,-0.125,0.1875,-32.5625,29.875,-60.1875,0.0,0.0,0.0,1.0,0.0,-0.000244,0.0,0.37,2.8,-0.45,0.0,0.0,9.8,31
3.618562,0.38,2.8,9.34,-0.1875,-0.375,0.1875,-32.5625,29.875,-60.1875,0.0,0.0,0.0,1.0,0.0,-0.000244,0.0,0.2,2.77,-0.46,0.0,0.0,9.8,31
3.629528,0.2,2.77,9.33,-0.125,-0.3125,0.1875,-20.5625,28.75,-63.75,0.0,0.0,0.0,1.0,0.0,-0.000244,0.0,-0.26,2.81,-0.45,0.0,0.0,9.8,31
3.640493,-0.26,2.81,9.34,0.1875,-0.3125,0.25,-20.5625,28.75,-63.75,0.0,0.0,0.0,1.0,0.0,-0.000244,0.0,-0.44,2.8,-0.44,0.0,0.0,9.8,31
3.651458,-0.44,2.8,9.36,-0.125,-0.125,0.25,-20.5625,28.75,-63.75,0.0,0.0,0.0,1.0,0.0,-0.000244,0.0,-0.7,2.77,-0.45,0.0,0.0,9.8,31
3.662424,-0.7,2.77,9.35,0.0625,-0.3125,0.125,-20.5625,28.75,-63.75,0.0,0.0,0.0,1.0,0.0,-0.000244,0.0,-0.93,2.78,-0.44,0.0,0.0,9.8,31
3.673389,-0.93,2.78,9.36,-0.25,-0.1875,0.1875,-20.5625,28.75,-63.75,0.0,0.0,0.0,1.0,0.0,-0.000244,0.0,-1.27,2.8,-0.4,0.0,0.0,9.8,31
3.684354,-1.27,2.8,9.4,-0.25,-0.1875,0.1875,-31.375,29.875,-65.5,0.0,0.0,0.0,1.0,0.0,-0.000244,0.0,-1.32,2.76,-0.43,0.0,0.0,9.8,31
3.69532,-1.32,2.76,9.37,0.125,-0.3125,0.1875,-31.375,29.875,-65.5,0.0,0.0,0.0,1.0,0.0,-0.000244,0.0,-1.38,2.79,-0.43,0.0,0.0,9.8,31
3.706285,-1.37,2.79,9.37,0.125,-0.0625,0.125,-31.375,29.875,-65.5,0.0,0.0,0.0,1.0,0.0,-0.000244,0.0,-1.35,2.78,-0.44,0.0,0.0,9.8,31
3.71725,-1.35,2.78,9.36,-0.25,-0.1875,0.1875,-31.375,29.875,-65.5,0.0,0.0,0.0,1.0,0.0,-0.000244,0.0,-1.09,2.79,-0.42,0.0,0.0,9.8,31
3.728216,-1.09,2.79,9.38,-0.375,-0.25,0.0625,-31.375,29.875,-65.5,0.0,0.0,0.0,1.0,0.0,-0.000244,0.0,-0.9,2.79,-0.44,0.0,0.0,9.8,31
3.739181,-0.9,2.79,9.36,-0.1875,-0.4375,0.25,-40.375,30.25,-65.5,0.0,0.0,0.0,1.0,0.0,-0.000244,0.0,-0.65,2.8,-0.43,0.0,0.0,9.8,31
3.750146,-0.39,2.79,9.35,-0.125,-0.125,0.1875,-40.375,30.25,-65.5,0.0,0.0,0.0,1.0,0.0,-0.000244,0.0,0.01,2.81,-0.46,0.0,0.0,9.8,31
3.761112,0.02,2.81,9.33,0.0,-0.375,0.3125,-40.375,30.25,-65.5,0.0,0.0,0.0,1.0,0.0,-0.000244,0.0,0.25,2.81,-0.44,0.0,0.0,9.8,31
3.772077,0.26,2.81,9.36,-0.1875,-0.5,0.25,-40.375,30.25,-65.5,0.0,0.0,0.0,1.0,0.0,-0.000244,0.0,0.4,2.81,-0.49,0.0,0.0,9.8,31
3.783042,0.4,2.81,9.3,-0.1875,-0.3125,0.25,-40.375,30.25,-65.5,0.0,0.0,0.0,1.0,0.0,-0.000244,0.0,0.4,2.81,-0.49,0.0,0.0,9.8,31
3.794008,0.52,2.84,9.33,0.0,-0.3125,0.125,-28.75,30.6875,-65.5,0.0,0.0,0.0,1.0,0.0,-0.000244,0.0,0.58,2.83,-0.47,0.0,0.0,9.8,31
3.804973,0.58,2.83,9.33,0.0,-0.125,0.1875,-28.75,30.6875,-65.5,0.0,0.0,0.0,1.0,0.0,-0.000244,0.0,0.49,2.82,-0.47,0.0,0.0,9.8,31
3.815939,0.49,2.82,9.32,-0.0625,0.0625,0.0625,-28.75,30.6875,-65.5,0.0,0.0,0.0,1.0,0.0,-0.000244,0.0,0.4,2.81,-0.47,0.0,0.0,9.8,31
3.826904,0.4,2.81,9.32,-0.0625,-0.125,0.1875,-28.75,30.6875,-65.5,0.0,0.0,0.0,1.0,0.0,-0.000244,0.0,0.0,2.82,-0.44,0.0,0.0,9.8,31
3.837869,0.0,2.82,9.36,-0.1875,-0.1875,0.25,-23.1875,30.25,-60.875,0.0,0.0,0.0,1.0,0.0,-0.000244,0.0,-0.24,2.81,-0.45,0.0,0.0,9.8,31
3.848835,-0.24,2.81,9.35,-0.0625,-0.375,0.1875,-23.1875,30.25,-60.875,0.0,0.0,0.0,1.0,0.0,-0.000244,0.0,-0.43,2.81,-0.46,0.0,0.0,9.8,31
3.8598,-0.67,2.82,9.35,-0.0625,-0.25,0.25,-23.1875,30.25,-60.875,0.0,0.0,0.0,1.0,0.0,-0.000244,0.0,-0.67,2.82,-0.45,0.0,0.0,9.8,31
3.870765,-1.07,2.78,9.34,-0.0625,0.0625,0.25,-23.1875,30.25,-60.875,0.0,0.0,0.0,1.0,0.0,-0.000244,0.0,-1.22,2.78,-0.4,0.0,0.0,9.8,31
3.881731,-1.22,2.78,9.39,0.0,-0.25,0.125,-23.1875,30.25,-60.875,0.0,0.0,0.0,1.0,0.0,-0.000244,0.0,-1.22,2.78,-0.4,0.0,0.0,9.8,31
3.892696,-1.34,2.78,9.39,-0.0625,-0.125,0.25,-35.1875,31.0625,-60.875,0.0,0.0,0.0,1.0,0.0,-0.000244,0.0,-1.39,2.79,-0.41,0.0,0.0,9.8,31
3.903661,-1.39,2.79,9.39,-0.125,-0.1875,0.1875,-35.1875,31.0625,-60.875,0.0,0.0,0.0,1.0,0.0,-0.000244,0.0,-1.26,2.79,-0.43,0.0,0.0,9.8,31
3.914627,-1.1,2.76,9.38,-0.125,-0.1875,0.0625,-35.1875,31.0625,-60.875,0.0,0.0,0.0,1.0,0.0,-0.000244,0.0,-1.1,2.76,-0.42,0.0,0.0,9.8,31
3.925592,-0.93,2.78,9.36,0.0,-0.125,0.25,-35.1875,31.0625,-60.875,0.0,0.0,0.0,1.0,0.0,-0.000244,0.0,-0.93,2.78,-0.44,0.0,0.0,9.8,31
3.936557,-0.69,2.79,9.38,0.125,-0.1875,0.1875,-44.5625,31.0625,-60.875,0.0,0.0,0.0,1.0,0.0,-0.000244,0.0,-0.23,2.82,-0.44,0.0,0.0,9.8,31
3.947523,-0.23,2.82,9.36,0.0625,-0.125,0.1875,-44.5625,31.0625,-60.875,0.0,0.0,0.0,1.0,0.0,-0.000244,0.0,-0.02,2.78,-0.46,0.0,0.0,9.8,31
3.958488,-0.01,2.78,9.33,-0.125,-0.25,0.25,-44.5625,31.0625,-60.875,0.0,0.0,0.0,1.0,0.0,-0.000244,0.0,0.2,2.81,-0.45,0.0,0.0,9.8,31
3.969453,0.21,2.81,9.35,0.0,-0.1875,0.125,-44.5625,31.0625,-60.875,0.0,0.0,0.0,1.0,0.0,-0.000244,0.0,0.49,2.83,-0.44,0.0,0.0,9.8,31
3.980419,0.5,2.83,9.36,0.0,-0.375,0.1875,-31.75,30.6875,-60.5625,0.0,0.0,0.0,1.0,0.0,-0.000244,0.0,0.56,2.84,-0.48,0.0,0.0,9.8,31
3.991384,0.58,2.82,9.32,0.0625,-0.375,0.1875,-31.75,30.6875,-60.5625,0.0,0.0,0.0,1.0,0.0,-0.000244,0.0,0.58,2.82,-0.47,0.0,0.0,9.8,31
4.002349,0.55,2.81,9.31,-0.25,-0.1875,0.1875,-31.75,30.6875,-60.5625,0.0,0.0,0.0,1.0,0.0,-0.000244,0.0,0.24,2.82,-0.44,0.0,0.0,9.8,31
4.013315,0.24,2.82,9.36,-0.125,-0.1875,0.1875,-31.75,30.6875,-60.5625,0.0,0.0,0.0,1.0,0.0,-0.000244,0.0,0.0,2.82,-0.45,0.0,0.0,9.8,31
4.02428,0.0,2.82,9.34,-0.125,-0.25,0.1875,-31.75,30.6875,-60.5625,0.0,0.0,0.0,1.0,0.0,-0.000244,0.0,-0.21,2.8,-0.47,0.0,0.0,9.8,31
4.035245,-0.2,2.8,9.33,0.0,-0.25,0.125,-22.75,30.25,-59.25,0.0,0.0,0.0,1.0,0.0,-0.000244,0.0,-0.39,2.79,-0.44,0.0,0.0,9.8,31
4.046211,-0.38,2.79,9.36,-0.1875,-0.25,0.3125,-22.75,30.25,-59.25,0.0,0.0,0.0,1.0,0.0,-0.000244,0.0,-0.88,2.79,-0.42,0.0,0.0,9.8,31
4.057176,-0.88,2.79,9.38,0.1875,-0.125,0.25,-22.75,30.25,-59.25,0.0,0.0,0.0,1.0,0.0,-0.000244,0.0,-1.07,2.79,-0.41,0.0,0.0,9.8,31
4.068141,-1.07,2.79,9.39,-0.125,-0.125,0.125,-22.75,30.25,-59.25,0.0,0.0,0.0,1.0,0.0,-0.000244,0.0,-1.21,2.79,-0.39,0.0,0.0,9.8,31
4.079107,-1.21,2.79,9.4,-0.25,-0.125,0.0,-35.1875,29.875,-60.5625,0.0,0.0,0.0,1.0,0.0,-0.000244,0.0,-1.33,2.77,-0.43,0.0,0.0,9.8,31
4.090072,-1.33,2.77,9.37,-0.125,-0.25,0.0625,-35.1875,29.875,-60.5625,0.0,0.0,0.0,1.0,0.0,-0.000244,0.0,-1.37,2.77,-0.39,0.0,0.0,9.8,31
4.101037,-1.36,2.77,9.4,-0.0625,-0.125,0.125,-35.1875,29.875,-60.5625,0.0,0.0,0.0,1.0,0.0,-0.000244,0.0,-1.28,2.75,-0.45,0.0,0.0,9.8,31
4.112003,-1.27,2.75,9.34,-0.1875,-0.3125,0.25,-35.1875,29.875,-60.5625,0.0,0.0,0.0,1.0,0.0,-0.000244,0.0,-1.14,2.8,-0.42,0.0,0.0,9.8,31
4.122968,-1.14,2.8,9.38,-0.1875,-0.375,0.125,-35.1875,29.875,-60.5625,0.0,0.0,0.0,1.0,0.0,-0.000244,0.0,-0.71,2.8,-0.44,0.0,0.0,9.8,31
4.133933,-0.71,2.8,9.36,0.0,-0.0625,0.1875,-43.375,31.375,-60.0625,0.0,0.0,0.0,1.0,0.0,-0.000244,0.0,-0.45,2.8,-0.44,0.0,0.0,9.8,31
4.144899,-0.26,2.8,9.31,-0.0625,-0.1875,0.1875,-43.375,31.375,-60.0625,0.0,0.0,0.0,1.0,0.0,-0.000244,0.0,-0.26,2.8,-0.49,0.0,0.0,9.8,31
4.155864,-0.05,2.81,9.35,-0.0625,-0.125,0.0625,-43.375,31.375,-60.0625,0.0,0.0,0.0,1.0,0.0,-0.000244,0.0,0.35,2.78,-0.47,0.0,0.0,9.8,31
4.166829,0.35,2.78,9.32,-0.0625,-0.125,0.1875,-43.375,31.375,-60.0625,0.0,0.0,0.0,1.0,0.0,-0.000244,0.0,0.49,2.82,-0.45,0.0,0.0,9.8,31
4.177795,0.49,2.82,9.35,0.0,-0.3125,0.1875,-43.375,31.375,-60.0625,0.0,0.0,0.0,1.0,0.0,-0.000244,0.0,0.49,2.82,-0.45,0.0,0.0,9.8,31
4.18876,0.57,2.83,9.31,0.0625,0.0625,0.0625,-32.5625,30.6875,-59.75,0.0,0.0,0.0,1.0,0.0,-0.000244,0.0,0.58,2.82,-0.49,0.0,0.0,9.8,31
4.199725,0.58,2.82,9.3,-0.125,-0.125,0.25,-32.5625,30.6875,-59.75,0.0,0.0,0.0,1.0,0.0,-0.000244,0.0,0.43,2.81,-0.49,0.0,0.0,9.8,31
4.210691,0.44,2.81,9.31,0.0,0.0625,0.1875,-32.5625,30.6875,-59.75,0.0,0.0,0.0,1.0,0.0,-0.000244,0.0,0.25,2.81,-0.45,0.0,0.0,9.8,31
4.221656,0.26,2.81,9.34,0.0,-0.1875,0.1875,-32.5625,30.6875,-59.75,0.0,0.0,0.0,1.0,0.0,-0.000244,0.0,0.02,2.81,-0.45,0.0,0.0,9.8,31
4.232621,0.03,2.81,9.35,-0.0625,-0.1875,0.125,-23.1875,28.75,-60.5625,0.0,0.0,0.0,1.0,0.0,-0.000244,0.0,-0.19,2.81,-0.45,0.0,0.0,9.8,31
4.243587,-0.19,2.81,9.34,-0.125,-0.25,0.25,-23.1875,28.75,-60.5625,0.0,0.0,0.0,1.0,0.0,-0.000244,0.0,-0.6,2.81,-0.41,0.0,0.0,9.8,31
4.254552,-0.84,2.8,9.33,-0.0625,-0.25,0.25,-23.1875,28.75,-60.5625,0.0,0.0,0.0,1.0,0.0,-0.000244,0.0,-0.85,2.8,-0.46,0.0,0.0,9.8,31
4.265517,-1.04,2.78,9.37,0.1875,-0.25,0.125,-23.1875,28.75,-60.5625,0.0,0.0,0.0,1.0,0.0,-0.000244,0.0,-1.21,2.8,-0.43,0.0,0.0,9.8,31
4.276483,-1.21,2.8,9.37,-0.125,-0.1875,0.125,-23.1875,28.75,-60.5625,0.0,0.0,0.0,1.0,0.0,-0.000244,0.0,-1.21,2.8,-0.43,0.0,0.0,9.8,31
4.287448,-1.36,2.77,9.39,0.0,-0.375,0.1875,-35.1875,31.0625,-61.0,0.0,0.0,0.0,1.0,0.0,-0.000244,0.0,-1.37,2.79,-0.44,0.0,0.0,9.8,31
4.298413,-1.36,2.79,9.36,0.1875,-0.25,0.1875,-35.1875,31.0625,-61.0,0.0,0.0,0.0,1.0,0.0,-0.000244,0.0,-1.28,2.78,-0.41,0.0,0.0,9.8,31
4.309379,-1.28,2.78,9.39,-0.25,-0.25,0.3125,-35.1875,31.0625,-61.0,0.0,0.0,0.0,1.0,0.0,-0.000244,0.0,-0.96,2.76,-0.43,0.0,0.0,9.8,31
4.320344,-0.95,2.76,9.37,-0.3125,-0.5625,0.1875,-35.1875,31.0625,-61.0,0.0,0.0,0.0,1.0,0.0,-0.000244,0.0,-0.76,2.82,-0.44,0.0,0.0,9.8,31
4.33131,-0.75,2.82,9.36,0.0,-0.0625,0.0625,-43.0625,31.0625,-61.0,0.0,0.0,0.0,1.0,0.0,-0.000244,0.0,-0.5,2.79,-0.45,0.0,0.0,9.8,31
4.342275,-0.49,2.79,9.35,0.0,0.375,0.0625,-43.0625,31.0625,-61.0,0.0,0.0,0.0,1.0,0.0,-0.000244,0.0,-0.28,2.82,-0.45,0.0,0.0,9.8,31
4.35324,-0.28,2.82,9.35,0.125,0.0625,0.1875,-43.0625,31.0625,-61.0,0.0,0.0,0.0,1.0,0.0,-0.000244,0.0,0.14,2.81,-0.46,0.0,0.0,9.8,31
4.364206,0.15,2.81,9.33,0.0,-0.4375,0.25,-43.0625,31.0625,-61.0,0.0,0.0,0.0,1.0,0.0,-0.000244,0.0,0.33,2.79,-0.45,0.0,0.0,9.8,31
4.375171,0.33,2.79,9.35,-0.25,-0.625,0.25,-43.0625,31.0625,-61.0,0.0,0.0,0.0,1.0,0.0,-0.000305,0.0,0.46,2.8,-0.46,0.0,0.0,9.8,31
4.386136,0.47,2.8,9.33,-0.0625,-0.4375,0.125,-28.75,30.25,-61.375,0.0,0.0,0.0,1.0,0.0,-0.000305,0.0,0.56,2.82,-0.48,0.0,0.0,9.8,31
4.397102,0.57,2.82,9.31,-0.1875,-0.1875,0.25,-28.75,30.25,-61.375,0.0,0.0,0.0,1.0,0.0,-0.000305,0.0,0.56,2.82,-0.48,0.0,0.0,9.8,31
4.408067,0.56,2.82,9.32,-0.25,-0.3125,0.25,-28.75,30.25,-61.375,0.0,0.0,0.0,1.0,0.0,-0.000305,0.0,0.44,2.82,-0.47,0.0,0.0,9.8,31
4.419032,0.45,2.82,9.32,-0.0625,-0.3125,0.25,-28.75,30.25,-61.375,0.0,0.0,0.0,1.0,0.0,-0.000305,0.0,0.29,2.82,-0.46,0.0,0.0,9.8,31
4.429998,0.29,2.82,9.33,-0.0625,-0.3125,0.1875,-28.75,30.25,-61.375,0.0,0.0,0.0,1.0,0.0,-0.000305,0.0,0.08,2.8,-0.48,0.0,0.0,9.8,31
4.440963,0.08,2.8,9.31,-0.0625,-0.375,0.25,-22.375,29.5625,-60.5625,0.0,0.0,0.0,1.0,0.0,-0.000305,0.0,-0.36,2.78,-0.44,0.0,0.0,9.8,31
4.451928,-0.35,2.78,9.36,-0.25,-0.375,0.125,-22.375,29.5625,-60.5625,0.0,0.0,0.0,1.0,0.0,-0.000305,0.0,-0.57,2.79,-0.45,0.0,0.0,9.8,31
4.462894,-0.56,2.79,9.35,0.0,-0.1875,0.125,-22.375,29.5625,-60.5625,0.0,0.0,0.0,1.0,0.0,-0.000305,0.0,-0.83,2.79,-0.44,0.0,0.0,9.8,31
4.473859,-0.83,2.79,9.36,-0.125,-0.125,0.3125,-22.375,29.5625,-60.5625,0.0,0.0,0.0,1.0,0.0,-0.000305,0.0,-1.19,2.79,-0.43,0.0,0.0,9.8,31
4.484824,-1.18,2.79,9.37,-0.0625,-0.25,0.25,-22.375,29.5625,-60.5625,0.0,0.0,0.0,1.0,0.0,-0.000305,0.0,-1.3,2.78,-0.42,0.0,0.0,9.8,31
4.49579,-1.3,2.78,9.38,-0.125,-0.125,0.3125,-35.875,30.25,-61.75,0.0,0.0,0.0,1.0,0.0,-0.000305,0.0,-1.38,2.76,-0.4,0.0,0.0,9.8,31
4.506755,-1.39,2.77,9.39,-0.1875,-0.3125,0.0,-35.875,30.25,-61.75,0.0,0.0,0.0,1.0,0.0,-0.000305,0.0,-1.39,2.77,-0.41,0.0,0.0,9.8,31
4.51772,-1.16,2.77,9.37,-0.0625,-0.125,0.0625,-35.875,30.25,-61.75,0.0,0.0,0.0,1.0,0.0,-0.000305,0.0,-0.98,2.79,-0.44,0.0,0.0,9.8,31
4.528686,-0.97,2.79,9.36,-0.25,-0.3125,0.125,-35.875,30.25,-61.75,0.0,0.0,0.0,1.0,0.0,-0.000305,0.0,-0.78,2.79,-0.43,0.0,0.0,9.8,31
4.539651,-0.77,2.79,9.37,0.0625,-0.125,0.25,-35.875,30.25,-61.75,0.0,0.0,0.0,1.0,0.0,-0.000305,0.0,-0.53,2.81,-0.45,0.0,0.0,9.8,31
4.550616,-0.52,2.81,9.35,0.0625,-0.1875,0.0625,-40.0625,29.5625,-65.5,0.0,0.0,0.0,1.0,0.0,-0.000305,0.0,-0.12,2.82,-0.45,0.0,0.0,9.8,31
4.561582,-0.11,2.82,9.35,0.0,-0.3125,0.25,-40.0625,29.5625,-65.5,0.0,0.0,0.0,1.0,0.0,-0.000305,0.0,0.12,2.82,-0.45,0.0,0.0,9.8,31
4.572547,0.12,2.82,9.34,-0.0625,-0.25,0.1875,-40.0625,29.5625,-65.5,0.0,0.0,0.0,1.0,0.0,-0.000305,0.0,0.31,2.8,-0.43,0.0,0.0,9.8,31
4.583512,0.32,2.8,9.37,-0.0625,-0.1875,0.25,-40.0625,29.5625,-65.5,0.0,0.0,0.0,1.0,0.0,-0.000305,0.0,0.46,2.82,-0.47,0.0,0.0,9.8,31
4.594478,0.46,2.82,9.33,-0.125,-0.1875,0.125,-30.25,29.875,-59.25,0.0,0.0,0.0,1.0,0.0,-0.000305,0.0,0.57,2.82,-0.47,0.0,0.0,9.8,31
4.605443,0.55,2.82,9.33,-0.125,-0.125,0.125,-30.25,29.875,-59.25,0.0,0.0,0.0,1.0,0.0,-0.000305,0.0,0.54,2.82,-0.47,0.0,0.0,9.8,31
4.616408,0.46,2.79,9.32,-0.3125,-0.5,0.25,-30.25,29.875,-59.25,0.0,0.0,0.0,1.0,0.0,-0.000305,0.0,0.3,2.82,-0.49,0.0,0.0,9.8,31
4.627374,0.3,2.82,9.31,-0.1875,-0.375,0.375,-30.25,29.875,-59.25,0.0,0.0,0.0,1.0,0.0,-0.000305,0.0,-0.12,2.8,-0.46,0.0,0.0,9.8,31
4.638339,-0.11,2.8,9.34,0.0625,-0.25,0.1875,-30.25,29.875,-59.25,0.0,0.0,0.0,1.0,0.0,-0.000305,0.0,-0.34,2.79,-0.46,0.0,0.0,9.8,31
4.649304,-0.33,2.79,9.34,-0.375,-0.3125,0.25,-23.1875,29.875,-61.375,0.0,0.0,0.0,1.0,0.0,-0.000305,0.0,-0.55,2.78,-0.46,0.0,0.0,9.8,31
4.66027,-0.98,2.78,9.34,-0.1875,-0.125,0.1875,-23.1875,29.875,-61.375,0.0,0.0,0.0,1.0,0.0,-0.000305,0.0,-0.99,2.78,-0.45,0.0,0.0,9.8,31
4.671235,-1.14,2.79,9.38,-0.0625,-0.1875,0.25,-23.1875,29.875,-61.375,0.0,0.0,0.0,1.0,0.0,-0.000305,0.0,-1.31,2.78,-0.42,0.0,0.0,9.8,31
4.6822,-1.3,2.78,9.38,0.0,-0.25,0.3125,-23.1875,29.875,-61.375,0.0,0.0,0.0,1.0,0.0,-0.000305,0.0,-1.31,2.78,-0.42,0.0,0.0,9.8,31
4.693166,-1.37,2.81,9.39,0.0,-0.25,0.25,-36.6875,31.0625,-60.1875,0.0,0.0,0.0,1.0,0.0,-0.000305,0.0,-1.31,2.79,-0.45,0.0,0.0,9.8,31
4.704131,-1.31,2.79,9.35,-0.1875,-0.125,0.125,-36.6875,31.0625,-60.1875,0.0,0.0,0.0,1.0,0.0,-0.000305,0.0,-1.19,2.78,-0.43,0.0,0.0,9.8,31
4.715096,-1.19,2.78,9.37,-0.0625,-0.125,0.125,-36.6875,31.0625,-60.1875,0.0,0.0,0.0,1.0,0.0,-0.000305,0.0,-1.02,2.8,-0.41,0.0,0.0,9.8,31
4.726062,-1.01,2.8,9.39,-0.1875,-0.3125,0.125,-36.6875,31.0625,-60.1875,0.0,0.0,0.0,1.0,0.0,-0.000305,0.0,-0.81,2.8,-0.42,0.0,0.0,9.8,31
4.737027,-0.81,2.8,9.38,-0.25,0.0,0.125,-42.6875,30.6875,-59.75,0.0,0.0,0.0,1.0,0.0,-0.000305,0.0,-0.33,2.81,-0.45,0.0,0.0,9.8,31
4.747992,-0.32,2.81,9.35,-0.1875,-0.375,0.1875,-42.6875,30.6875,-59.75,0.0,0.0,0.0,1.0,0.0,-0.000305,0.0,-0.12,2.81,-0.48,0.0,0.0,9.8,31
4.758958,0.1,2.83,9.3,-0.125,-0.375,0.125,-42.6875,30.6875,-59.75,0.0,0.0,0.0,1.0,0.0,-0.000305,0.0,0.09,2.83,-0.5,0.0,0.0,9.8,31
4.769923,0.29,2.83,9.34,0.0,-0.125,0.3125,-42.6875,30.6875,-59.75,0.0,0.0,0.0,1.0,0.0,-0.000305,0.0,0.55,2.82,-0.46,0.0,0.0,9.8,31
4.780888,0.55,2.82,9.34,-0.1875,-0.0625,0.1875,-42.6875,30.6875,-59.75,0.0,0.0,0.0,1.0,0.0,-0.000305,0.0,0.55,2.82,-0.46,0.0,0.0,9.8,31
4.791854,0.59,2.82,9.33,-0.0625,0.0,0.1875,-29.875,29.5625,-60.5625,0.0,0.0,0.0,1.0,0.0,-0.000305,0.0,0.56,2.82,-0.51,0.0,0.0,9.8,31
4.802819,0.56,2.82,9.28,-0.375,-0.4375,0.0625,-29.875,29.5625,-60.5625,0.0,0.0,0.0,1.0,0.0,-0.000305,0.0,0.32,2.82,-0.46,0.0,0.0,9.8,31
4.813784,0.33,2.82,9.33,0.0625,-0.1875,0.1875,-29.875,29.5625,-60.5625,0.0,0.0,0.0,1.0,0.0,-0.000305,0.0,0.14,2.82,-0.46,0.0,0.0,9.8,31
4.82475,0.15,2.82,9.33,-0.125,-0.3125,0.1875,-29.875,29.5625,-60.5625,0.0,0.0,0.0,1.0,0.0,-0.000305,0.0,-0.09,2.81,-0.43,0.0,0.0,9.8,31
4.835715,-0.08,2.81,9.37,0.125,-0.125,0.3125,-20.1875,29.875,-63.875,0.0,0.0,0.0,1.0,0.0,-0.000305,0.0,-0.31,2.82,-0.44,0.0,0.0,9.8,31
4.846681,-0.3,2.82,9.36,-0.25,-0.125,0.25,-20.1875,29.875,-63.875,0.0,0.0,0.0,1.0,0.0,-0.000305,0.0,-0.76,2.81,-0.45,0.0,0.0,9.8,31
4.857646,-0.75,2.81,9.35,-0.0625,-0.25,0.1875,-20.1875,29.875,-63.875,0.0,0.0,0.0,1.0,0.0,-0.000305,0.0,-0.98,2.77,-0.42,0.0,0.0,9.8,31
4.868611,-0.97,2.77,9.38,0.125,-0.1875,0.1875,-20.1875,29.875,-63.875,0.0,0.0,0.0,1.0,0.0,-0.000305,0.0,-1.14,2.79,-0.42,0.0,0.0,9.8,31
4.879577,-1.14,2.79,9.38,0.0625,-0.3125,0.1875,-20.1875,29.875,-63.875,0.0,0.0,0.0,1.0,0.0,-0.000305,0.0,-1.27,2.78,-0.41,0.0,0.0,9.8,31
4.890542,-1.27,2.78,9.39,-0.125,-0.0625,0.1875,-35.1875,29.875,-65.875,0.0,0.0,0.0,1.0,0.0,-0.000305,0.0,-1.38,2.79,-0.39,0.0,0.0,9.8,31
4.901507,-1.38,2.79,9.4,-0.3125,-0.5,0.1875,-35.1875,29.875,-65.875,0.0,0.0,0.0,1.0,0.0,-0.000305,0.0,-1.33,2.79,-0.42,0.0,0.0,9.8,31
4.912473,-1.32,2.79,9.38,-0.25,-0.5625,0.1875,-35.1875,29.875,-65.875,0.0,0.0,0.0,1.0,0.0,-0.000305,0.0,-1.21,2.79,-0.42,0.0,0.0,9.8,31
4.923438,-1.21,2.79,9.38,0.0,-0.375,0.125,-35.1875,29.875,-65.875,0.0,0.0,0.0,1.0,0.0,-0.000305,0.0,-1.03,2.79,-0.43,0.0,0.0,9.8,31
4.934403,-1.03,2.79,9.37,-0.125,0.125,0.1875,-35.1875,29.875,-65.875,0.0,0.0,0.0,1.0,0.0,-0.000305,0.0,-0.58,2.81,-0.44,0.0,0.0,9.8,31
4.945369,-0.57,2.81,9.36,-0.125,-0.0625,0.1875,-41.1875,31.0625,-65.0625,0.0,0.0,0.0,1.0,0.0,-0.000305,0.0,-0.35,2.81,-0.45,0.0,0.0,9.8,31
4.956334,-0.34,2.81,9.34,0.0625,-0.375,0.1875,-41.1875,31.0625,-65.0625,0.0,0.0,0.0,1.0,0.0,-0.000305,0.0,-0.16,2.81,-0.47,0.0,0.0,9.8,31
4.967299,-0.15,2.81,9.33,0.0,-0.1875,0.25,-41.1875,31.0625,-65.0625,0.0,0.0,0.0,1.0,0.0,-0.000305,0.0,0.05,2.82,-0.48,0.0,0.0,9.8,31
4.978265,0.06,2.82,9.31,0.0,-0.25,0.25,-41.1875,31.0625,-65.0625,0.0,0.0,0.0,1.0,0.0,-0.000305,0.0,0.44,2.82,-0.46,0.0,0.0,9.8,31
4.98923,0.45,2.82,9.34,0.125,-0.25,0.25,-41.1875,31.0625,-65.0625,0.0,0.0,0.0,1.0,0.0,-0.000305,0.0,0.54,2.83,-0.46,0.0,0.0,9.8,31
5.000195,0.55,2.83,9.33,0.0,-0.25,0.1875,-26.5625,28.75,-65.5625,0.0,0.0,0.0,1.0,0.0,-0.000305,0.0,0.58,2.83,-0.46,0.0,0.0,9.8,31
5.011161,0.59,2.83,9.33,-0.3125,-0.25,0.1875,-26.5625,28.75,-65.5625,0.0,0.0,0.0,1.0,0.0,-0.000305,0.0,0.48,2.82,-0.46,0.0,0.0,9.8,31
5.022126,0.34,2.82,9.33,-0.1875,-0.625,0.1875,-26.5625,28.75,-65.5625,0.0,0.0,0.0,1.0,0.0,-0.000305,0.0,0.34,2.82,-0.46,0.0,0.0,9.8,31
5.033091,0.19,2.79,9.34,-0.125,-0.375,0.125,-26.5625,28.75,-65.5625,0.0,0.0,0.0,1.0,0.0,-0.000305,0.0,-0.06,2.8,-0.45,0.0,0.0,9.8,31
5.044057,-0.05,2.8,9.35,-0.0625,-0.1875,0.1875,-26.5625,28.75,-65.5625,0.0,0.0,0.0,1.0,0.0,-0.000305,0.0,-0.46,2.8,-0.45,0.0,0.0,9.8,31
5.055022,-0.45,2.8,9.35,-0.125,-0.5625,0.1875,-22.0625,28.75,-64.25,0.0,0.0,0.0,1.0,0.0,-0.000305,0.0,-0.73,2.79,-0.42,0.0,0.0,9.8,31
5.065987,-0.73,2.79,9.38,-0.125,-0.4375,0.125,-22.0625,28.75,-64.25,0.0,0.0,0.0,1.0,0.0,-0.000305,0.0,-0.95,2.79,-0.43,0.0,0.0,9.8,31
5.076953,-1.12,2.79,9.36,-0.125,-0.375,0.125,-22.0625,28.75,-64.25,0.0,0.0,0.0,1.0,0.0,-0.000305,0.0,-1.13,2.79,-0.44,0.0,0.0,9.8,31
5.087918,-1.34,2.77,9.38,-0.3125,-0.5,0.125,-22.0625,28.75,-64.25,0.0,0.0,0.0,1.0,0.0,-0.000305,0.0,-1.35,2.77,-0.42,0.0,0.0,9.8,31
5.098883,-1.39,2.79,9.37,-0.125,-0.375,0.3125,-36.25,30.6875,-59.25,0.0,0.0,0.0,1.0,0.0,-0.000305,0.0,-1.33,2.76,-0.41,0.0,0.0,9.8,31
5.109849,-1.32,2.76,9.39,0.0625,-0.4375,0.1875,-36.25,30.6875,-59.25,0.0,0.0,0.0,1.0,0.0,-0.000305,0.0,-1.22,2.79,-0.44,0.0,0.0,9.8,31
5.120814,-1.22,2.79,9.36,0.0625,-0.3125,0.1875,-36.25,30.6875,-59.25,0.0,0.0,0.0,1.0,0.0,-0.000305,0.0,-0.88,2.76,-0.41,0.0,0.0,9.8,31
5.131779,-0.87,2.76,9.39,-0.1875,-0.25,0.125,-36.25,30.6875,-59.25,0.0,0.0,0.0,1.0,0.0,-0.000305,0.0,-0.6,2.79,-0.47,0.0,0.0,9.8,31
5.142745,-0.6,2.79,9.33,-0.125,-0.1875,0.1875,-36.25,30.6875,-59.25,0.0,0.0,0.0,1.0,0.0,-0.000305,0.0,-0.37,2.79,-0.43,0.0,0.0,9.8,31
5.15371,-0.37,2.79,9.37,0.0625,-0.1875,0.1875,-42.6875,31.0625,-61.375,0.0,0.0,0.0,1.0,0.0,-0.000305,0.0,-0.2,2.82,-0.45,0.0,0.0,9.8,31
5.164675,-0.2,2.82,9.34,0.0,-0.25,0.1875,-42.6875,31.0625,-61.375,0.0,0.0,0.0,1.0,0.0,-0.000305,0.0,0.26,2.81,-0.49,0.0,0.0,9.8,31
5.175641,0.27,2.81,9.31,0.0,-0.1875,0.25,-42.6875,31.0625,-61.375,0.0,0.0,0.0,1.0,0.0,-0.000305,0.0,0.41,2.82,-0.49,0.0,0.0,9.8,31
5.186606,0.42,2.82,9.31,-0.125,-0.25,0.25,-42.6875,31.0625,-61.375,0.0,0.0,0.0,1.0,0.0,-0.000305,0.0,0.51,2.83,-0.48,0.0,0.0,9.8,31
5.197571,0.52,2.83,9.31,0.0,-0.25,0.125,-27.25,30.25,-60.5625,0.0,0.0,0.0,1.0,0.0,-0.000305,0.0,0.57,2.82,-0.45,0.0,0.0,9.8,31
5.208537,0.51,2.82,9.31,0.1875,-0.125,0.125,-27.25,30.25,-60.5625,0.0,0.0,0.0,1.0,0.0,-0.000305,0.0,0.51,2.82,-0.48,0.0,0.0,9.8,31
5.219502,0.38,2.82,9.33,0.0,-0.0625,0.25,-27.25,30.25,-60.5625,0.0,0.0,0.0,1.0,0.0,-0.000305,0.0,0.18,2.82,-0.49,0.0,0.0,9.8,31
5.230467,0.19,2.82,9.31,-0.0625,-0.5,0.3125,-27.25,30.25,-60.5625,0.0,0.0,0.0,1.0,0.0,-0.000305,0.0,-0.27,2.81,-0.45,0.0,0.0,9.8,31
5.241433,-0.27,2.81,9.34,-0.0625,-0.25,0.1875,-27.25,30.25,-60.5625,0.0,0.0,0.0,1.0,0.0,-0.000305,0.0,-0.45,2.81,-0.39,0.0,0.0,9.8,31
5.252398,-0.44,2.81,9.41,-0.125,-0.3125,0.125,-23.875,28.75,-59.25,0.0,0.0,0.0,1.0,0.0,-0.000305,0.0,-0.71,2.77,-0.44,0.0,0.0,9.8,31
5.263363,-0.7,2.77,9.36,-0.25,-0.25,0.25,-23.875,28.75,-59.25,0.0,0.0,0.0,1.0,0.0,-0.000305,0.0,-0.94,2.77,-0.46,0.0,0.0,9.8,31
5.274329,-0.93,2.77,9.34,-0.5,-0.4375,0.1875,-23.875,28.75,-59.25,0.0,0.0,0.0,1.0,0.0,-0.000305,0.0,-1.26,2.79,-0.43,0.0,0.0,9.8,31
5.285294,-1.25,2.79,9.37,-0.3125,-0.375,0.125,-23.875,28.75,-59.25,0.0,0.0,0.0,1.0,0.0,-0.000305,0.0,-1.36,2.79,-0.41,0.0,0.0,9.8,31
5.296259,-1.35,2.79,9.39,-0.1875,-0.1875,0.1875,-39.25,30.25,-62.25,0.0,0.0,0.0,1.0,0.0,-0.000305,0.0,-1.39,2.8,-0.4,0.0,0.0,9.8,31
5.307225,-1.38,2.8,9.39,-0.3125,-0.25,0.1875,-39.25,30.25,-62.25,0.0,0.0,0.0,1.0,0.0,-0.000305,0.0,-1.36,2.79,-0.41,0.0,0.0,9.8,31
5.31819,-1.35,2.79,9.39,-0.1875,-0.0625,0.125,-39.25,30.25,-62.25,0.0,0.0,0.0,1.0,0.0,-0.000305,0.0,-1.09,2.78,-0.45,0.0,0.0,9.8,31
5.329155,-1.08,2.78,9.35,-0.1875,-0.625,0.1875,-39.25,30.25,-62.25,0.0,0.0,0.0,1.0,0.0,-0.000366,0.0,-0.9,2.78,-0.43,0.0,0.0,9.8,31
5.340121,-0.9,2.78,9.37,-0.125,-0.3125,0.1875,-39.25,30.25,-62.25,0.0,0.0,0.0,1.0,0.0,-0.000366,0.0,-0.64,2.81,-0.41,0.0,0.0,9.8,31
5.351086,-0.63,2.81,9.39,0.0,-0.1875,0.1875,-41.5625,31.0625,-61.0,0.0,0.0,0.0,1.0,0.0,-0.000366,0.0,-0.21,2.8,-0.44,0.0,0.0,9.8,31
5.362052,0.02,2.8,9.34,-0.0625,-0.3125,0.25,-41.5625,31.0625,-61.0,0.0,0.0,0.0,1.0,0.0,-0.000366,0.0,0.01,2.8,-0.45,0.0,0.0,9.8,31
5.373017,0.24,2.83,9.31,-0.1875,-0.0625,0.25,-41.5625,31.0625,-61.0,0.0,0.0,0.0,1.0,0.0,-0.000366,0.0,0.39,2.82,-0.49,0.0,0.0,9.8,31
5.383982,0.4,2.82,9.31,-0.0625,-0.125,0.3125,-41.5625,31.0625,-61.0,0.0,0.0,0.0,1.0,0.0,-0.000366,0.0,0.59,2.82,-0.47,0.0,0.0,9.8,31
5.394948,0.59,2.82,9.32,-0.3125,-0.4375,0.0625,-41.5625,31.0625,-61.0,0.0,0.0,0.0,1.0,0.0,-0.000366,0.0,0.59,2.82,-0.47,0.0,0.0,9.8,31
5.405913,0.57,2.82,9.34,-0.0625,-0.3125,0.0625,-27.6875,30.6875,-60.5625,0.0,0.0,0.0,1.0,0.0,-0.000366,0.0,0.51,2.81,-0.46,0.0,0.0,9.8,31
5.416878,0.52,2.81,9.33,-0.0625,-0.25,0.1875,-27.6875,30.6875,-60.5625,0.0,0.0,0.0,1.0,0.0,-0.000366,0.0,0.38,2.81,-0.5,0.0,0.0,9.8,31
5.427844,0.39,2.81,9.3,-0.0625,-0.375,0.25,-27.6875,30.6875,-60.5625,0.0,0.0,0.0,1.0,0.0,-0.000366,0.0,0.0,2.82,-0.45,0.0,0.0,9.8,31
5.438809,0.0,2.82,9.35,0.0625,-0.0625,0.3125,-27.6875,30.6875,-60.5625,0.0,0.0,0.0,1.0,0.0,-0.000366,0.0,-0.25,2.83,-0.45,0.0,0.0,9.8,31
5.449774,-0.24,2.83,9.35,-0.0625,-0.0625,0.3125,-24.25,28.0625,-60.1875,0.0,0.0,0.0,1.0,0.0,-0.000366,0.0,-0.41,2.79,-0.43,0.0,0.0,9.8,31
5.46074,-0.4,2.79,9.37,-0.1875,0.0,0.1875,-24.25,28.0625,-60.1875,0.0,0.0,0.0,1.0,0.0,-0.000366,0.0,-0.67,2.8,-0.44,0.0,0.0,9.8,31
5.471705,-0.66,2.8,9.36,-0.0625,-0.125,0.1875,-24.25,28.0625,-60.1875,0.0,0.0,0.0,1.0,0.0,-0.000366,0.0,-1.08,2.78,-0.45,0.0,0.0,9.8,31
5.48267,-1.24,2.8,9.39,-0.1875,-0.4375,0.125,-24.25,28.0625,-60.1875,0.0,0.0,0.0,1.0,0.0,-0.000366,0.0,-1.24,2.8,-0.41,0.0,0.0,9.8,31
5.493636,-1.33,2.78,9.4,-0.125,-0.25,0.0,-24.25,28.0625,-60.1875,0.0,0.0,0.0,1.0,0.0,-0.000366,0.0,-1.33,2.78,-0.4,0.0,0.0,9.8,31
5.504601,-1.34,2.78,9.37,-0.1875,-0.125,0.25,-37.75,30.6875,-61.375,0.0,0.0,0.0,1.0,0.0,-0.000366,0.0,-1.26,2.78,-0.42,0.0,0.0,9.8,31
5.515566,-1.25,2.78,9.38,-0.125,-0.3125,0.1875,-37.75,30.6875,-61.375,0.0,0.0,0.0,1.0,0.0,-0.000366,0.0,-1.13,2.78,-0.45,0.0,0.0,9.8,31
5.526532,-1.12,2.78,9.35,0.0,-0.25,0.125,-37.75,30.6875,-61.375,0.0,0.0,0.0,1.0,0.0,-0.000427,0.0,-0.92,2.79,-0.42,0.0,0.0,9.8,31
5.537497,-0.91,2.79,9.38,-0.0625,-0.625,0.1875,-37.75,30.6875,-61.375,0.0,0.0,0.0,1.0,0.0,-0.000427,0.0,-0.42,2.8,-0.46,0.0,0.0,9.8,31
5.548462,-0.42,2.8,9.34,0.125,-0.1875,0.125,-37.75,30.6875,-61.375,0.0,0.0,0.0,1.0,0.0,-0.000427,0.0,-0.25,2.8,-0.42,0.0,0.0,9.8,31
5.559428,-0.24,2.8,9.38,-0.125,-0.25,0.125,-42.6875,32.875,-61.375,0.0,0.0,0.0,1.0,0.0,-0.000427,0.0,-0.04,2.81,-0.45,0.0,0.0,9.8,31
5.570393,-0.03,2.81,9.34,-0.1875,-0.375,0.25,-42.6875,32.875,-61.375,0.0,0.0,0.0,1.0,0.0,-0.000427,0.0,0.2,2.8,-0.47,0.0,0.0,9.8,31
5.581358,0.21,2.8,9.32,-0.0625,-0.5625,0.125,-42.6875,32.875,-61.375,0.0,0.0,0.0,1.0,0.0,-0.000427,0.0,0.49,2.84,-0.49,0.0,0.0,9.8,31
5.592324,0.5,2.84,9.3,0.0625,-0.0625,0.25,-42.6875,32.875,-61.375,0.0,0.0,0.0,1.0,0.0,-0.000427,0.0,0.58,2.82,-0.46,0.0,0.0,9.8,31
5.603289,0.59,2.82,9.33,0.0,-0.25,0.125,-28.375,29.875,-60.5625,0.0,0.0,0.0,1.0,0.0,-0.000427,0.0,0.56,2.83,-0.51,0.0,0.0,9.8,31
5.614254,0.54,2.82,9.32,-0.125,-0.1875,0.25,-28.375,29.875,-60.5625,0.0,0.0,0.0,1.0,0.0,-0.000427,0.0,0.53,2.82,-0.48,0.0,0.0,9.8,31
5.62522,0.25,2.79,9.31,-0.1875,-0.4375,0.125,-28.375,29.875,-60.5625,0.0,0.0,0.0,1.0,0.0,-0.000427,0.0,0.01,2.81,-0.47,0.0,0.0,9.8,31
5.636185,0.02,2.81,9.33,0.0,0.0625,0.125,-28.375,29.875,-60.5625,0.0,0.0,0.0,1.0,0.0,-0.000427,0.0,-0.21,2.83,-0.45,0.0,0.0,9.8,31
5.64715,-0.2,2.83,9.34,-0.0625,-0.1875,0.125,-28.375,29.875,-60.5625,0.0,0.0,0.0,1.0,0.0,-0.000427,0.0,-0.4,2.82,-0.44,0.0,0.0,9.8,31
5.658116,-0.39,2.82,9.36,-0.25,-0.375,0.1875,-23.875,30.25,-60.1875,0.0,0.0,0.0,1.0,0.0,-0.000427,0.0,-0.88,2.8,-0.43,0.0,0.0,9.8,31
5.669081,-0.87,2.8,9.37,-0.1875,-0.625,0.1875,-23.875,30.25,-60.1875,0.0,0.0,0.0,1.0,0.0,-0.000488,0.0,-1.08,2.79,-0.44,0.0,0.0,9.8,31
5.680046,-1.07,2.79,9.36,-0.125,-0.25,0.25,-23.875,30.25,-60.1875,0.0,0.0,0.0,1.0,0.0,-0.000488,0.0,-1.22,2.78,-0.43,0.0,0.0,9.8,31
5.691012,-1.21,2.78,9.37,0.0,-0.1875,0.1875,-23.875,30.25,-60.1875,0.0,0.0,0.0,1.0,0.0,-0.000488,0.0,-1.38,2.78,-0.4,0.0,0.0,9.8,31
5.701977,-1.37,2.78,9.39,0.0,-0.125,0.1875,-38.5625,31.375,-60.5625,0.0,0.0,0.0,1.0,0.0,-0.000488,0.0,-1.36,2.79,-0.42,0.0,0.0,9.8,31
5.712942,-1.35,2.79,9.38,-0.25,-0.1875,0.1875,-38.5625,31.375,-60.5625,0.0,0.0,0.0,1.0,0.0,-0.000488,0.0,-1.3,2.8,-0.42,0.0,0.0,9.8,31
5.723908,-1.29,2.8,9.38,0.0625,-0.4375,0.1875,-38.5625,31.375,-60.5625,0.0,0.0,0.0,1.0,0.0,-0.000488,0.0,-1.13,2.78,-0.43,0.0,0.0,9.8,31
5.734873,-1.12,2.78,9.37,-0.1875,-0.3125,0.125,-38.5625,31.375,-60.5625,0.0,0.0,0.0,1.0,0.0,-0.000488,0.0,-0.72,2.8,-0.43,0.0,0.0,9.8,31
5.745838,-0.71,2.8,9.37,-0.1875,0.0,0.25,-38.5625,31.375,-60.5625,0.0,0.0,0.0,1.0,0.0,-0.000488,0.0,-0.43,2.79,-0.44,0.0,0.0,9.8,31
5.756804,-0.42,2.79,9.36,-0.125,-0.1875,0.1875,-41.5625,31.375,-61.375,0.0,0.0,0.0,1.0,0.0,-0.000488,0.0,-0.27,2.82,-0.45,0.0,0.0,9.8,31
5.767769,-0.26,2.82,9.35,0.0625,-0.1875,0.1875,-41.5625,31.375,-61.375,0.0,0.0,0.0,1.0,0.0,-0.000488,0.0,-0.05,2.8,-0.45,0.0,0.0,9.8,31
5.778734,-0.04,2.8,9.35,-0.125,-0.3125,0.1875,-41.5625,31.375,-61.375,0.0,0.0,0.0,1.0,0.0,-0.000488,0.0,0.34,2.82,-0.48,0.0,0.0,9.8,31
5.7897,0.35,2.82,9.32,-0.1875,-0.375,0.0625,-41.5625,31.375,-61.375,0.0,0.0,0.0,1.0,0.0,-0.000488,0.0,0.49,2.82,-0.47,0.0,0.0,9.8,31
5.800665,0.5,2.82,9.33,-0.375,-0.5,0.1875,-41.5625,31.375,-61.375,0.0,0.0,0.0,1.0,0.0,-0.000488,0.0,0.56,2.82,-0.46,0.0,0.0,9.8,31
5.81163,0.57,2.82,9.33,-0.0625,-0.125,0.125,-27.25,29.5625,-61.375,0.0,0.0,0.0,1.0,0.0,-0.000488,0.0,0.58,2.82,-0.48,0.0,0.0,9.8,31
5.822596,0.59,2.82,9.32,0.0,-0.1875,0.1875,-27.25,29.5625,-61.375,0.0,0.0,0.0,1.0,0.0,-0.000488,0.0,0.41,2.81,-0.46,0.0,0.0,9.8,31
5.833561,0.28,2.82,9.34,-0.1875,-0.375,0.3125,-27.25,29.5625,-61.375,0.0,0.0,0.0,1.0,0.0,-0.000488,0.0,0.27,2.82,-0.46,0.0,0.0,9.8,31
5.844527,0.06,2.82,9.32,-0.0625,-0.25,0.25,-27.25,29.5625,-61.375,0.0,0.0,0.0,1.0,0.0,-0.000488,0.0,-0.38,2.8,-0.42,0.0,0.0,9.8,31
5.855492,-0.37,2.8,9.38,-0.125,-0.1875,0.25,-27.25,29.5625,-61.375,0.0,0.0,0.0,1.0,0.0,-0.000488,0.0,-0.63,2.81,-0.42,0.0,0.0,9.8,31
5.866457,-0.62,2.81,9.38,0.0,-0.1875,0.25,-21.25,29.5625,-63.0625,0.0,0.0,0.0,1.0,0.0,-0.000488,0.0,-0.86,2.78,-0.42,0.0,0.0,9.8,31
5.877423,-0.85,2.78,9.38,-0.0625,-0.3125,0.1875,-21.25,29.5625,-63.0625,0.0,0.0,0.0,1.0,0.0,-0.000488,0.0,-1.04,2.79,-0.44,0.0,0.0,9.8,31
5.888388,-1.31,2.77,9.39,0.0,-0.125,0.25,-21.25,29.5625,-63.0625,0.0,0.0,0.0,1.0,0.0,-0.000488,0.0,-1.32,2.77,-0.41,0.0,0.0,9.8,31
5.899353,-1.37,2.79,9.38,-0.125,-0.25,0.25,-21.25,29.5625,-63.0625,0.0,0.0,0.0,1.0,0.0,-0.000488,0.0,-1.38,2.79,-0.42,0.0,0.0,9.8,31
5.910319,-1.37,2.77,9.41,0.125,-0.125,0.3125,-38.875,31.0625,-61.0,0.0,0.0,0.0,1.0,0.0,-0.000488,0.0,-1.29,2.78,-0.42,0.0,0.0,9.8,31
5.921284,-1.28,2.78,9.38,-0.0625,-0.25,0.25,-38.875,31.0625,-61.0,0.0,0.0,0.0,1.0,0.0,-0.000488,0.0,-0.97,2.78,-0.42,0.0,0.0,9.8,31
5.932249,-0.96,2.78,9.38,-0.125,-0.0625,0.125,-38.875,31.0625,-61.0,0.0,0.0,0.0,1.0,0.0,-0.000488,0.0,-0.73,2.8,-0.45,0.0,0.0,9.8,31
5.943215,-0.72,2.8,9.35,-0.3125,-0.125,0.125,-38.875,31.0625,-61.0,0.0,0.0,0.0,1.0,0.0,-0.000488,0.0,-0.49,2.81,-0.45,0.0,0.0,9.8,31
5.95418,-0.48,2.81,9.34,-0.1875,-0.4375,0.1875,-38.875,31.0625,-61.0,0.0,0.0,0.0,1.0,0.0,-0.000488,0.0,-0.29,2.79,-0.45,0.0,0.0,9.8,31
5.965145,-0.28,2.79,9.35,-0.1875,-0.1875,0.125,-41.1875,30.25,-61.0,0.0,0.0,0.0,1.0,0.0,-0.000488,0.0,0.16,2.81,-0.47,0.0,0.0,9.8,31
5.976111,0.17,2.81,9.33,0.0,-0.375,0.25,-41.1875,30.25,-61.0,0.0,0.0,0.0,1.0,0.0,-0.000488,0.0,0.33,2.82,-0.48,0.0,0.0,9.8,31
5.987076,0.34,2.82,9.31,0.0,-0.3125,0.25,-41.1875,30.25,-61.0,0.0,0.0,0.0,1.0,0.0,-0.000488,0.0,0.47,2.83,-0.46,0.0,0.0,9.8,31
5.998041,0.48,2.83,9.33,0.0,0.0625,0.3125,-41.1875,30.25,-61.0,0.0,0.0,0.0,1.0,0.0,-0.000488,0.0,0.56,2.84,-0.47,0.0,0.0,9.8,31
6.009007,0.56,2.84,9.32,-0.0625,-0.3125,0.1875,-27.25,29.875,-58.875,0.0,0.0,0.0,1.0,0.0,-0.000488,0.0,0.53,2.82,-0.48,0.0,0.0,9.8,31
6.019972,0.54,2.82,9.32,-0.3125,-0.25,0.25,-27.25,29.875,-58.875,0.0,0.0,0.0,1.0,0.0,-0.000488,0.0,0.44,2.82,-0.48,0.0,0.0,9.8,31
6.030937,0.45,2.82,9.32,0.0,-0.1875,0.25,-27.25,29.875,-58.875,0.0,0.0,0.0,1.0,0.0,-0.000488,0.0,0.27,2.8,-0.46,0.0,0.0,9.8,31
6.041903,0.28,2.8,9.33,-0.1875,-0.3125,0.125,-27.25,29.875,-58.875,0.0,0.0,0.0,1.0,0.0,-0.000488,0.0,-0.18,2.79,-0.46,0.0,0.0,9.8,31
6.052868,-0.17,2.79,9.34,-0.0625,-0.375,0.125,-27.25,29.875,-58.875,0.0,0.0,0.0,1.0,0.0,-0.000488,0.0,-0.35,2.81,-0.42,0.0,0.0,9.8,31
6.063833,-0.34,2.81,9.38,-0.1875,-0.3125,0.25,-26.5625,30.25,-61.0,0.0,0.0,0.0,1.0,0.0,-0.000488,0.0,-0.56,2.8,-0.43,0.0,0.0,9.8,31
6.074799,-0.56,2.8,9.37,0.0,-0.4375,0.25,-26.5625,30.25,-61.0,0.0,0.0,0.0,1.0,0.0,-0.000488,0.0,-0.82,2.79,-0.42,0.0,0.0,9.8,31
6.085764,-1.18,2.8,9.39,-0.0625,-0.3125,0.25,-26.5625,30.25,-61.0,0.0,0.0,0.0,1.0,0.0,-0.000488,0.0,-1.19,2.8,-0.41,0.0,0.0,9.8,31
6.096729,-1.32,2.79,9.38,-0.1875,0.0,0.0625,-26.5625,30.25,-61.0,0.0,0.0,0.0,1.0,0.0,-0.000488,0.0,-1.37,2.8,-0.38,0.0,0.0,9.8,31
6.107695,-1.36,2.8,9.41,-0.3125,-0.375,0.0625,-26.5625,30.25,-61.0,0.0,0.0,0.0,1.0,0.0,-0.000488,0.0,-1.37,2.77,-0.43,0.0,0.0,9.8,31
6.11866,-1.36,2.77,9.37,0.0,-0.3125,0.25,-39.25,31.75,-61.75,0.0,0.0,0.0,1.0,0.0,-0.000488,0.0,-1.17,2.79,-0.41,0.0,0.0,9.8,31
6.129625,-1.16,2.79,9.39,0.0625,-0.1875,0.25,-39.25,31.75,-61.75,0.0,0.0,0.0,1.0,0.0,-0.000488,0.0,-1.01,2.78,-0.43,0.0,0.0,9.8,31
6.140591,-1.01,2.78,9.37,-0.0625,-0.125,0.1875,-39.25,31.75,-61.75,0.0,0.0,0.0,1.0,0.0,-0.000488,0.0,-0.79,2.8,-0.45,0.0,0.0,9.8,31
6.151556,-0.78,2.8,9.35,0.0625,-0.125,0.1875,-39.25,31.75,-61.75,0.0,0.0,0.0,1.0,0.0,-0.000488,0.0,-0.51,2.8,-0.44,0.0,0.0,9.8,31
6.162521,-0.5,2.8,9.36,-0.125,-0.5625,0.1875,-38.875,30.6875,-64.75,0.0,0.0,0.0,1.0,0.0,-0.000488,0.0,-0.11,2.82,-0.44,0.0,0.0,9.8,31
6.173487,0.14,2.81,9.35,-0.25,-0.25,0.0625,-38.875,30.6875,-64.75,0.0,0.0,0.0,1.0,0.0,-0.000488,0.0,0.13,2.81,-0.45,0.0,0.0,9.8,31
6.184452,0.33,2.82,9.33,-0.1875,-0.5625,0.25,-38.875,30.6875,-64.75,0.0,0.0,0.0,1.0,0.0,-0.000488,0.0,0.48,2.82,-0.48,0.0,0.0,9.8,31
6.195417,0.49,2.82,9.32,-0.3125,-0.375,0.1875,-38.875,30.6875,-64.75,0.0,0.0,0.0,1.0,0.0,-0.000488,0.0,0.59,2.83,-0.45,0.0,0.0,9.8,31
6.206383,0.6,2.83,9.34,-0.125,-0.25,0.1875,-38.875,30.6875,-64.75,0.0,0.0,0.0,1.0,0.0,-0.000488,0.0,0.59,2.83,-0.45,0.0,0.0,9.8,31
6.217348,0.57,2.82,9.34,-0.125,-0.125,0.1875,-23.1875,28.375,-63.875,0.0,0.0,0.0,1.0,0.0,-0.000488,0.0,0.47,2.82,-0.46,0.0,0.0,9.8,31
6.228313,0.48,2.82,9.33,-0.375,-0.375,0.3125,-23.1875,28.375,-63.875,0.0,0.0,0.0,1.0,0.0,-0.000488,0.0,0.11,2.8,-0.48,0.0,0.0,9.8,31
6.239279,0.12,2.8,9.32,-0.25,-0.0625,0.125,-23.1875,28.375,-63.875,0.0,0.0,0.0,1.0,0.0,-0.000488,0.0,-0.14,2.81,-0.45,0.0,0.0,9.8,31
6.250244,-0.13,2.81,9.34,0.125,-0.0625,0.125,-23.1875,28.375,-63.875,0.0,0.0,0.0,1.0,0.0,-0.000488,0.0,-0.34,2.81,-0.45,0.0,0.0,9.8,31
6.261209,-0.33,2.81,9.35,-0.0625,-0.3125,0.1875,-22.375,29.875,-64.75,0.0,0.0,0.0,1.0,0.0,-0.000488,0.0,-0.54,2.78,-0.45,0.0,0.0,9.8,31
6.272175,-0.53,2.78,9.34,-0.1875,-0.1875,0.125,-22.375,29.875,-64.75,0.0,0.0,0.0,1.0,0.0,-0.000488,0.0,-1.01,2.79,-0.42,0.0,0.0,9.8,31
6.28314,-1.0,2.79,9.38,-0.1875,-0.1875,0.1875,-22.375,29.875,-64.75,0.0,0.0,0.0,1.0,0.0,-0.000488,0.0,-1.17,2.79,-0.41,0.0,0.0,9.8,31
6.294105,-1.3,2.78,9.36,-0.125,0.125,0.0625,-22.375,29.875,-64.75,0.0,0.0,0.0,1.0,0.0,-0.000488,0.0,-1.31,2.78,-0.44,0.0,0.0,9.8,31
6.305071,-1.36,2.77,9.4,-0.125,-0.4375,0.25,-22.375,29.875,-64.75,0.0,0.0,0.0,1.0,0.0,-0.000488,0.0,-1.37,2.77,-0.4,0.0,0.0,9.8,31
6.316036,-1.3,2.77,9.38,0.0625,-0.375,0.1875,-38.5625,29.875,-61.75,0.0,0.0,0.0,1.0,0.0,-0.000488,0.0,-1.15,2.76,-0.41,0.0,0.0,9.8,31
6.327001,-1.14,2.76,9.39,-0.25,-0.4375,0.25,-38.5625,29.875,-61.75,0.0,0.0,0.0,1.0,0.0,-0.000488,0.0,-1.02,2.78,-0.45,0.0,0.0,9.8,31
6.337967,-1.01,2.78,9.35,-0.125,-0.25,0.125,-38.5625,29.875,-61.75,0.0,0.0,0.0,1.0,0.0,-0.000488,0.0,-0.81,2.79,-0.42,0.0,0.0,9.8,31
6.348932,-0.8,2.79,9.38,0.1875,-0.0625,0.1875,-38.5625,29.875,-61.75,0.0,0.0,0.0,1.0,0.0,-0.000488,0.0,-0.33,2.79,-0.43,0.0,0.0,9.8,31
6.359898,-0.32,2.79,9.37,0.0,-0.1875,0.1875,-38.5625,29.875,-61.75,0.0,0.0,0.0,1.0,0.0,-0.000488,0.0,-0.14,2.81,-0.44,0.0,0.0,9.8,31
6.370863,-0.13,2.81,9.36,-0.1875,-0.1875,0.25,-42.25,31.0625,-60.1875,0.0,0.0,0.0,1.0,0.0,-0.000488,0.0,0.09,2.8,-0.48,0.0,0.0,9.8,31
6.381828,0.1,2.8,9.31,-0.0625,0.1875,0.1875,-42.25,31.0625,-60.1875,0.0,0.0,0.0,1.0,0.0,-0.000488,0.0,0.44,2.83,-0.47,0.0,0.0,9.8,31
6.392794,0.45,2.83,9.33,-0.0625,0.0,0.125,-42.25,31.0625,-60.1875,0.0,0.0,0.0,1.0,0.0,-0.000488,0.0,0.52,2.84,-0.46,0.0,0.0,9.8,31
6.403759,0.53,2.84,9.33,0.0625,-0.1875,0.1875,-42.25,31.0625,-60.1875,0.0,0.0,0.0,1.0,0.0,-0.000488,0.0,0.59,2.83,-0.47,0.0,0.0,9.8,31
6.414724,0.6,2.83,9.33,0.125,-0.125,0.25,-27.6875,28.75,-61.0,0.0,0.0,0.0,1.0,0.0,-0.000488,0.0,0.56,2.81,-0.45,0.0,0.0,9.8,31
6.42569,0.57,2.81,9.35,-0.125,-0.0625,0.3125,-27.6875,28.75,-61.0,0.0,0.0,0.0,1.0,0.0,-0.000488,0.0,0.32,2.82,-0.46,0.0,0.0,9.8,31
6.436655,0.11,2.82,9.3,0.0,-0.3125,0.1875,-27.6875,28.75,-61.0,0.0,0.0,0.0,1.0,0.0,-0.000488,0.0,0.1,2.82,-0.49,0.0,0.0,9.8,31
6.44762,-0.09,2.8,9.34,-0.1875,-0.3125,0.0625,-27.6875,28.75,-61.0,0.0,0.0,0.0,1.0,0.0,-0.000488,0.0,-0.33,2.79,-0.42,0.0,0.0,9.8,31
6.458586,-0.32,2.79,9.38,-0.1875,-0.25,0.125,-27.6875,28.75,-61.0,0.0,0.0,0.0,1.0,0.0,-0.000488,0.0,-0.79,2.8,-0.45,0.0,0.0,9.8,31
6.469551,-0.78,2.8,9.35,0.125,-0.3125,0.3125,-24.375,30.0,-61.0,0.0,0.0,0.0,1.0,0.0,-0.000488,0.0,-0.99,2.75,-0.45,0.0,0.0,9.8,31
6.480516,-0.98,2.75,9.35,0.0,-0.1875,0.0625,-24.375,30.0,-61.0,0.0,0.0,0.0,1.0,0.0,-0.000488,0.0,-1.14,2.77,-0.43,0.0,0.0,9.8,31
6.491482,-1.13,2.77,9.37,0.0,-0.3125,0.3125,-24.375,30.0,-61.0,0.0,0.0,0.0,1.0,0.0,-0.000488,0.0,-1.29,2.77,-0.42,0.0,0.0,9.8,31
6.502447,-1.28,2.77,9.38,-0.1875,0.0625,0.125,-24.375,30.0,-61.0,0.0,0.0,0.0,1.0,0.0,-0.000488,0.0,-1.38,2.77,-0.4,0.0,0.0,9.8,31
6.513412,-1.37,2.77,9.39,-0.375,-0.375,0.1875,-40.375,31.75,-61.375,0.0,0.0,0.0,1.0,0.0,-0.000488,0.0,-1.34,2.78,-0.41,0.0,0.0,9.8,31
6.524378,-1.33,2.78,9.39,-0.3125,-0.375,0.1875,-40.375,31.75,-61.375,0.0,0.0,0.0,1.0,0.0,-0.000488,0.0,-1.21,2.79,-0.41,0.0,0.0,9.8,31
6.535343,-1.2,2.79,9.39,-0.375,-0.1875,0.25,-40.375,31.75,-61.375,0.0,0.0,0.0,1.0,0.0,-0.000488,0.0,-1.05,2.8,-0.44,0.0,0.0,9.8,31
6.546308,-1.04,2.8,9.36,0.0,-0.0625,0.1875,-40.375,31.75,-61.375,0.0,0.0,0.0,1.0,0.0,-0.000488,0.0,-0.58,2.79,-0.45,0.0,0.0,9.8,31
6.557274,-0.57,2.79,9.35,0.125,-0.25,0.25,-40.375,31.75,-61.375,0.0,0.0,0.0,1.0,0.0,-0.000488,0.0,-0.34,2.81,-0.44,0.0,0.0,9.8,31
6.568239,-0.33,2.81,9.36,0.125,0.125,0.125,-40.875,31.0625,-61.375,0.0,0.0,0.0,1.0,0.0,-0.000488,0.0,-0.16,2.81,-0.42,0.0,0.0,9.8,31
6.579204,-0.15,2.81,9.38,0.0,0.0,0.1875,-40.875,31.0625,-61.375,0.0,0.0,0.0,1.0,0.0,-0.000488,0.0,0.28,2.83,-0.47,0.0,0.0,9.8,31
6.59017,0.29,2.83,9.32,0.1875,-0.3125,0.25,-40.875,31.0625,-61.375,0.0,0.0,0.0,1.0,0.0,-0.000488,0.0,0.44,2.82,-0.49,0.0,0.0,9.8,31
6.601135,0.45,2.82,9.3,0.25,0.0625,0.1875,-40.875,31.0625,-61.375,0.0,0.0,0.0,1.0,0.0,-0.000488,0.0,0.52,2.83,-0.45,0.0,0.0,9.8,31
6.6121,0.53,2.83,9.35,0.0,-0.125,0.1875,-40.875,31.0625,-61.375,0.0,0.0,0.0,1.0,0.0,-0.000488,0.0,0.59,2.83,-0.48,0.0,0.0,9.8,31
6.623066,0.6,2.83,9.32,-0.0625,-0.1875,0.1875,-25.875,30.75,-61.375,0.0,0.0,0.0,1.0,0.0,-0.000488,0.0,0.5,2.8,-0.49,0.0,0.0,9.8,31
6.634031,0.51,2.8,9.31,-0.125,-0.125,0.1875,-25.875,30.75,-61.375,0.0,0.0,0.0,1.0,0.0,-0.000488,0.0,0.34,2.83,-0.47,0.0,0.0,9.8,31
6.644996,0.35,2.83,9.33,-0.0625,-0.3125,0.25,-25.875,30.75,-61.375,0.0,0.0,0.0,1.0,0.0,-0.000488,0.0,0.17,2.83,-0.48,0.0,0.0,9.8,31
6.655962,0.18,2.83,9.32,-0.1875,-0.1875,0.1875,-25.875,30.75,-61.375,0.0,0.0,0.0,1.0,0.0,-0.000488,0.0,-0.07,2.81,-0.46,0.0,0.0,9.8,31
6.666927,-0.06,2.81,9.33,-0.125,-0.3125,0.1875,-25.875,30.75,-61.375,0.0,0.0,0.0,1.0,0.0,-0.000488,0.0,-0.49,2.77,-0.42,0.0,0.0,9.8,31
6.677892,-0.48,2.77,9.38,0.0,-0.25,0.25,-23.875,30.25,-61.375,0.0,0.0,0.0,1.0,0.0,-0.000488,0.0,-0.74,2.8,-0.42,0.0,0.0,9.8,31
6.688858,-0.96,2.78,9.36,-0.0625,-0.25,0.0625,-23.875,30.25,-61.375,0.0,0.0,0.0,1.0,0.0,-0.000488,0.0,-0.97,2.78,-0.44,0.0,0.0,9.8,31
6.699823,-1.13,2.78,9.35,0.0,-0.25,0.25,-23.875,30.25,-61.375,0.0,0.0,0.0,1.0,0.0,-0.000488,0.0,-1.35,2.78,-0.42,0.0,0.0,9.8,31
6.710788,-1.35,2.78,9.38,0.0625,-0.25,0.125,-23.875,30.25,-61.375,0.0,0.0,0.0,1.0,0.0,-0.000488,0.0,-1.39,2.81,-0.43,0.0,0.0,9.8,31
6.721754,-1.38,2.81,9.37,-0.0625,-0.1875,0.375,-41.5625,31.75,-61.0,0.0,0.0,0.0,1.0,0.0,-0.000488,0.0,-1.33,2.78,-0.42,0.0,0.0,9.8,31
6.732719,-1.32,2.78,9.38,-0.125,-0.3125,0.1875,-41.5625,31.75,-61.0,0.0,0.0,0.0,1.0,0.0,-0.000488,0.0,-1.06,2.8,-0.41,0.0,0.0,9.8,31
6.743684,-1.05,2.8,9.39,0.0625,-0.4375,0.125,-41.5625,31.75,-61.0,0.0,0.0,0.0,1.0,0.0,-0.000488,0.0,-0.87,2.78,-0.44,0.0,0.0,9.8,31
6.75465,-0.86,2.78,9.36,0.0625,-0.125,0.1875,-41.5625,31.75,-61.0,0.0,0.0,0.0,1.0,0.0,-0.000488,0.0,-0.61,2.79,-0.45,0.0,0.0,9.8,31
6.765615,-0.6,2.79,9.35,-0.1875,-0.25,0.125,-41.5625,31.75,-61.0,0.0,0.0,0.0,1.0,0.0,-0.000488,0.0,-0.38,2.81,-0.45,0.0,0.0,9.8,31
6.77658,-0.37,2.81,9.34,-0.1875,-0.3125,0.3125,-39.6875,31.375,-61.375,0.0,0.0,0.0,1.0,0.0,-0.000488,0.0,0.03,2.81,-0.44,0.0,0.0,9.8,31
6.787546,0.25,2.82,9.32,0.0625,-0.25,0.25,-39.6875,31.375,-61.375,0.0,0.0,0.0,1.0,0.0,-0.000488,0.0,0.24,2.82,-0.47,0.0,0.0,9.8,31
6.798511,0.41,2.82,9.31,-0.125,-0.375,0.3125,-39.6875,31.375,-61.375,0.0,0.0,0.0,1.0,0.0,-0.000488,0.0,0.52,2.83,-0.48,0.0,0.0,9.8,31
6.809476,0.53,2.83,9.32,0.125,-0.0625,0.25,-39.6875,31.375,-61.375,0.0,0.0,0.0,1.0,0.0,-0.000488,0.0,0.56,2.82,-0.47,0.0,0.0,9.8,31
6.820442,0.57,2.82,9.32,-0.125,-0.0625,0.1875,-39.6875,31.375,-61.375,0.0,0.0,0.0,1.0,0.0,-0.000488,0.0,0.56,2.82,-0.47,0.0,0.0,9.8,31
6.831407,0.51,2.83,9.34,0.0,-0.375,0.125,-25.75,30.25,-59.75,0.0,0.0,0.0,1.0,0.0,-0.000488,0.0,0.36,2.82,-0.47,0.0,0.0,9.8,31
6.842372,0.37,2.82,9.32,-0.0625,-0.4375,0.25,-25.75,30.25,-59.75,0.0,0.0,0.0,1.0,0.0,-0.000488,0.0,0.18,2.79,-0.47,0.0,0.0,9.8,31
6.853338,0.19,2.79,9.32,0.125,-0.25,0.1875,-25.75,30.25,-59.75,0.0,0.0,0.0,1.0,0.0,-0.000488,0.0,-0.29,2.81,-0.44,0.0,0.0,9.8,31
6.864303,-0.28,2.81,9.36,-0.3125,-0.3125,0.125,-25.75,30.25,-59.75,0.0,0.0,0.0,1.0,0.0,-0.000488,0.0,-0.47,2.79,-0.42,0.0,0.0,9.8,31
6.875269,-0.46,2.79,9.38,-0.125,-0.3125,0.25,-25.75,29.875,-59.75,0.0,0.0,0.0,1.0,0.0,-0.000488,0.0,-0.7,2.81,-0.42,0.0,0.0,9.8,31
6.886234,-0.69,2.81,9.38,0.0,0.125,0.1875,-25.75,29.875,-59.75,0.0,0.0,0.0,1.0,0.0,-0.000488,0.0,-1.12,2.8,-0.42,0.0,0.0,9.8,31
6.897199,-1.11,2.8,9.38,-0.1875,-0.4375,0.3125,-25.75,29.875,-59.75,0.0,0.0,0.0,1.0,0.0,-0.000488,0.0,-1.26,2.77,-0.41,0.0,0.0,9.8,31
6.908165,-1.25,2.77,9.39,-0.125,-0.375,0.125,-25.75,29.875,-59.75,0.0,0.0,0.0,1.0,0.0,-0.000488,0.0,-1.34,2.76,-0.43,0.0,0.0,9.8,31
6.91913,-1.33,2.76,9.37,-0.1875,-0.4375,0.25,-25.75,29.875,-59.75,0.0,0.0,0.0,1.0,0.0,-0.000488,0.0,-1.39,2.8,-0.41,0.0,0.0,9.8,31
6.930095,-1.38,2.8,9.39,-0.125,-0.5,0.25,-40.5,30.375,-62.25,0.0,0.0,0.0,1.0,0.0,-0.000488,0.0,-1.24,2.81,-0.42,0.0,0.0,9.8,31
6.941061,-1.06,2.82,9.4,-0.125,0.0625,0.25,-40.5,30.375,-62.25,0.0,0.0,0.0,1.0,0.0,-0.000488,0.0,-1.07,2.82,-0.4,0.0,0.0,9.8,31
6.952026,-0.89,2.79,9.37,-0.1875,-0.25,0.25,-40.5,30.375,-62.25,0.0,0.0,0.0,1.0,0.0,-0.000488,0.0,-0.62,2.8,-0.45,0.0,0.0,9.8,31
6.962991,-0.61,2.8,9.35,-0.1875,-0.1875,0.1875,-40.5,30.375,-62.25,0.0,0.0,0.0,1.0,0.0,-0.000488,0.0,-0.22,2.82,-0.43,0.0,0.0,9.8,31
6.973957,-0.21,2.82,9.37,-0.1875,-0.375,0.1875,-40.5,30.375,-62.25,0.0,0.0,0.0,1.0,0.0,-0.000488,0.0,0.02,2.81,-0.44,0.0,0.0,9.8,31
6.984922,0.03,2.81,9.36,0.25,0.1875,0.3125,-40.0625,31.0625,-60.1875,0.0,0.0,0.0,1.0,0.0,-0.000488,0.0,0.22,2.81,-0.43,0.0,0.0,9.8,31
6.995887,0.23,2.81,9.37,-0.125,0.0,0.1875,-40.0625,31.0625,-60.1875,0.0,0.0,0.0,1.0,0.0,-0.000488,0.0,0.41,2.81,-0.48,0.0,0.0,9.8,31
7.006853,0.42,2.81,9.32,-0.0625,-0.1875,0.1875,-40.0625,31.0625,-60.1875,0.0,0.0,0.0,1.0,0.0,-0.000488,0.0,0.59,2.83,-0.47,0.0,0.0,9.8,31
7.017818,0.6,2.83,9.33,-0.25,-0.4375,0.25,-40.0625,31.0625,-60.1875,0.0,0.0,0.0,1.0,0.0,-0.000488,0.0,0.58,2.83,-0.47,0.0,0.0,9.8,31
7.028783,0.59,2.83,9.32,-0.125,-0.0625,0.0625,-22.5,28.875,-63.875,0.0,0.0,0.0,1.0,0.0,-0.000488,0.0,0.51,2.82,-0.45,0.0,0.0,9.8,31
7.039749,0.52,2.82,9.34,-0.125,-0.0625,0.125,-22.5,28.875,-63.875,0.0,0.0,0.0,1.0,0.0,-0.000488,0.0,0.37,2.79,-0.46,0.0,0.0,9.8,31
7.050714,0.38,2.79,9.34,-0.1875,0.0625,0.125,-22.5,28.875,-63.875,0.0,0.0,0.0,1.0,0.0,-0.000488,0.0,-0.01,2.8,-0.48,0.0,0.0,9.8,31
7.061679,0.0,2.8,9.31,-0.1875,-0.125,0.1875,-22.5,28.875,-63.875,0.0,0.0,0.0,1.0,0.0,-0.000488,0.0,-0.24,2.78,-0.43,0.0,0.0,9.8,31
7.072645,-0.23,2.78,9.37,-0.0625,-0.1875,0.25,-22.5,28.875,-63.875,0.0,0.0,0.0,1.0,0.0,-0.000488,0.0,-0.44,2.79,-0.45,0.0,0.0,9.8,31
7.08361,-0.43,2.79,9.34,-0.0625,-0.25,0.1875,-25.0625,29.1875,-60.5625,0.0,0.0,0.0,1.0,0.0,-0.000488,0.0,-0.91,2.8,-0.42,0.0,0.0,9.8,31
7.094575,-0.9,2.8,9.38,0.0625,0.0,0.25,-25.0625,29.1875,-60.5625,0.0,0.0,0.0,1.0,0.0,-0.000488,0.0,-1.09,2.78,-0.45,0.0,0.0,9.8,32
7.105541,-1.08,2.78,9.35,-0.0625,-0.125,0.1875,-25.0625,29.1875,-60.5625,0.0,0.0,0.0,1.0,0.0,-0.000488,0.0,-1.25,2.79,-0.45,0.0,0.0,9.8,32
7.116506,-1.24,2.79,9.35,0.0,-0.0625,0.25,-25.0625,29.1875,-60.5625,0.0,0.0,0.0,1.0,0.0,-0.000488,0.0,-1.33,2.78,-0.42,0.0,0.0,9.8,32
7.127471,-1.36,2.8,9.37,0.0,-0.3125,0.25,-25.0625,29.1875,-60.5625,0.0,0.0,0.0,1.0,0.0,-0.000488,0.0,-1.37,2.8,-0.43,0.0,0.0,9.8,32
7.138437,-1.27,2.78,9.38,-0.1875,-0.375,0.1875,-39.0,30.75,-62.25,0.0,0.0,0.0,1.0,0.0,-0.000488,0.0,-1.12,2.78,-0.43,0.0,0.0,9.8,32
7.149402,-1.11,2.78,9.37,-0.125,-0.375,0.1875,-39.0,30.75,-62.25,0.0,0.0,0.0,1.0,0.0,-0.000488,0.0,-0.91,2.78,-0.45,0.0,0.0,9.8,32
7.160367,-0.9,2.78,9.35,0.0625,-0.375,0.3125,-39.0,30.75,-62.25,0.0,0.0,0.0,1.0,0.0,-0.000488,0.0,-0.4,2.8,-0.45,0.0,0.0,9.8,32
7.171333,-0.39,2.8,9.35,-0.0625,-0.375,0.1875,-39.0,30.75,-62.25,0.0,0.0,0.0,1.0,0.0,-0.000488,0.0,-0.25,2.79,-0.46,0.0,0.0,9.8,32
7.182298,-0.24,2.79,9.33,-0.0625,0.0,0.3125,-39.0,30.75,-62.25,0.0,0.0,0.0,1.0,0.0,-0.000488,0.0,-0.02,2.8,-0.44,0.0,0.0,9.8,32
7.193263,-0.01,2.8,9.36,-0.25,-0.375,0.375,-39.6875,31.375,-59.75,0.0,0.0,0.0,1.0,0.0,-0.000488,0.0,0.21,2.81,-0.45,0.0,0.0,9.8,32
7.204229,0.22,2.81,9.34,-0.0625,-0.125,0.1875,-39.6875,31.375,-59.75,0.0,0.0,0.0,1.0,0.0,-0.000488,0.0,0.49,2.82,-0.48,0.0,0.0,9.8,32
7.215194,0.5,2.82,9.32,-0.125,-0.25,0.125,-39.6875,31.375,-59.75,0.0,0.0,0.0,1.0,0.0,-0.000488,0.0,0.56,2.82,-0.48,0.0,0.0,9.8,32
7.226159,0.57,2.82,9.31,0.0,-0.125,0.1875,-39.6875,31.375,-59.75,0.0,0.0,0.0,1.0,0.0,-0.000488,0.0,0.6,2.83,-0.46,0.0,0.0,9.8,32
7.237125,0.61,2.83,9.34,-0.125,0.0,0.25,-24.75,30.0,-60.1875,0.0,0.0,0.0,1.0,0.0,-0.000488,0.0,0.39,2.83,-0.48,0.0,0.0,9.8,32
7.24809,0.25,2.82,9.34,-0.0625,-0.1875,0.25,-24.75,30.0,-60.1875,0.0,0.0,0.0,1.0,0.0,-0.000488,0.0,0.24,2.82,-0.45,0.0,0.0,9.8,32
7.259055,0.02,2.81,9.33,-0.25,-0.25,0.125,-24.75,30.0,-60.1875,0.0,0.0,0.0,1.0,0.0,-0.000488,0.0,-0.23,2.81,-0.47,0.0,0.0,9.8,32
7.270021,-0.22,2.81,9.33,0.0,0.0,0.1875,-24.75,30.0,-60.1875,0.0,0.0,0.0,1.0,0.0,-0.000488,0.0,-0.64,2.81,-0.43,0.0,0.0,9.8,32
7.280986,-0.63,2.81,9.37,-0.125,-0.125,0.0625,-24.75,30.0,-60.1875,0.0,0.0,0.0,1.0,0.0,-0.000488,0.0,-0.89,2.79,-0.41,0.0,0.0,9.8,32
7.291951,-0.88,2.79,9.39,0.0625,-0.375,0.1875,-26.25,29.25,-63.875,0.0,0.0,0.0,1.0,0.0,-0.000488,0.0,-1.07,2.79,-0.4,0.0,0.0,9.8,32
7.302917,-1.06,2.79,9.4,0.0,-0.3125,0.1875,-26.25,29.25,-63.875,0.0,0.0,0.0,1.0,0.0,-0.000488,0.0,-1.22,2.78,-0.4,0.0,0.0,9.8,32
7.313882,-1.21,2.78,9.39,-0.25,-0.25,0.25,-26.25,29.25,-63.875,0.0,0.0,0.0,1.0,0.0,-0.000488,0.0,-1.38,2.77,-0.42,0.0,0.0,9.8,32
7.324847,-1.37,2.77,9.38,-0.25,-0.375,0.25,-26.25,29.25,-63.875,0.0,0.0,0.0,1.0,0.0,-0.000488,0.0,-1.37,2.78,-0.41,0.0,0.0,9.8,32
7.335813,-1.36,2.78,9.39,0.0,-0.25,0.1875,-36.75,30.75,-64.25,0.0,0.0,0.0,1.0,0.0,-0.000488,0.0,-1.27,2.79,-0.44,0.0,0.0,9.8,32
7.346778,-1.26,2.79,9.36,-0.1875,-0.125,0.25,-36.75,30.75,-64.25,0.0,0.0,0.0,1.0,0.0,-0.000488,0.0,-1.12,2.8,-0.39,0.0,0.0,9.8,32
7.357743,-1.11,2.8,9.4,-0.0625,-0.0625,0.1875,-36.75,30.75,-64.25,0.0,0.0,0.0,1.0,0.0,-0.000488,0.0,-0.7,2.8,-0.46,0.0,0.0,9.8,32
7.368709,-0.69,2.8,9.33,-0.0625,-0.25,0.25,-36.75,30.75,-64.25,0.0,0.0,0.0,1.0,0.0,-0.000488,0.0,-0.44,2.79,-0.46,0.0,0.0,9.8,32
7.379674,-0.43,2.79,9.33,0.125,-0.25,0.1875,-36.75,30.75,-64.25,0.0,0.0,0.0,1.0,0.0,-0.000488,0.0,-0.27,2.8,-0.42,0.0,0.0,9.8,32
7.39064,-0.26,2.8,9.38,0.0625,-0.3125,0.25,-36.25,29.875,-65.0625,0.0,0.0,0.0,1.0,0.0,-0.000488,0.0,-0.03,2.81,-0.46,0.0,0.0,9.8,32
7.401605,0.36,2.81,9.31,-0.125,-0.25,0.3125,-36.25,29.875,-65.0625,0.0,0.0,0.0,1.0,0.0,-0.000488,0.0,0.35,2.81,-0.48,0.0,0.0,9.8,32
7.41257,0.49,2.83,9.31,-0.125,-0.3125,0.1875,-36.25,29.875,-65.0625,0.0,0.0,0.0,1.0,0.0,-0.000488,0.0,0.56,2.81,-0.49,0.0,0.0,9.8,32
7.423536,0.57,2.81,9.31,-0.25,-0.25,0.1875,-36.25,29.875,-65.0625,0.0,0.0,0.0,1.0,0.0,-0.000488,0.0,0.52,2.82,-0.47,0.0,0.0,9.8,32
7.434501,0.53,2.82,9.33,-0.375,-0.4375,0.125,-36.25,29.875,-65.0625,0.0,0.0,0.0,1.0,0.0,-0.000488,0.0,0.52,2.82,-0.47,0.0,0.0,9.8,32
7.445466,0.45,2.8,9.34,0.0625,-0.375,0.1875,-21.25,28.375,-65.0625,0.0,0.0,0.0,1.0,0.0,-0.000488,0.0,0.26,2.79,-0.45,0.0,0.0,9.8,32
7.456432,0.27,2.79,9.34,0.0,-0.1875,0.25,-21.25,28.375,-65.0625,0.0,0.0,0.0,1.0,0.0,-0.000488,0.0,0.05,2.81,-0.47,0.0,0.0,9.8,32
7.467397,-0.36,2.82,9.34,0.0,0.0,0.3125,-21.25,28.375,-65.0625,0.0,0.0,0.0,1.0,0.0,-0.000488,0.0,-0.37,2.82,-0.46,0.0,0.0,9.8,32
7.478362,-0.6,2.8,9.34,0.0625,-0.3125,0.125,-21.25,28.375,-65.0625,0.0,0.0,0.0,1.0,0.0,-0.000488,0.0,-0.61,2.8,-0.45,0.0,0.0,9.8,32
7.489328,-0.85,2.78,9.37,0.0625,0.0,0.125,-24.0,29.25,-64.75,0.0,0.0,0.0,1.0,0.0,-0.000488,0.0,-1.06,2.81,-0.4,0.0,0.0,9.8,32
7.500293,-1.05,2.81,9.39,-0.125,-0.3125,0.1875,-24.0,29.25,-64.75,0.0,0.0,0.0,1.0,0.0,-0.000488,0.0,-1.34,2.8,-0.44,0.0,0.0,9.8,32
7.511258,-1.33,2.8,9.36,-0.125,-0.125,0.1875,-24.0,29.25,-64.75,0.0,0.0,0.0,1.0,0.0,-0.000488,0.0,-1.39,2.81,-0.43,0.0,0.0,9.8,32
7.522224,-1.38,2.79,9.39,-0.3125,-0.25,0.0625,-24.0,29.25,-64.75,0.0,0.0,0.0,1.0,0.0,-0.000488,0.0,-1.39,2.79,-0.41,0.0,0.0,9.8,32
7.533189,-1.3,2.79,9.35,-0.0625,-0.125,0.1875,-42.0,31.5,-61.375,0.0,0.0,0.0,1.0,0.0,-0.000488,0.0,-0.97,2.79,-0.44,0.0,0.0,9.8,32
7.544154,-0.96,2.79,9.36,-0.25,-0.375,0.1875,-42.0,31.5,-61.375,0.0,0.0,0.0,1.0,0.0,-0.000488,0.0,-0.75,2.79,-0.45,0.0,0.0,9.8,32
7.55512,-0.74,2.79,9.34,-0.0625,-0.1875,0.1875,-42.0,31.5,-61.375,0.0,0.0,0.0,1.0,0.0,-0.000488,0.0,-0.48,2.79,-0.43,0.0,0.0,9.8,32
7.566085,-0.47,2.79,9.37,0.0625,-0.1875,0.25,-42.0,31.5,-61.375,0.0,0.0,0.0,1.0,0.0,-0.000488,0.0,-0.06,2.8,-0.45,0.0,0.0,9.8,32
7.57705,-0.05,2.8,9.34,0.0,-0.4375,0.25,-42.0,31.5,-61.375,0.0,0.0,0.0,1.0,0.0,-0.000488,0.0,0.17,2.82,-0.46,0.0,0.0,9.8,32
7.588016,0.18,2.82,9.34,-0.0625,-0.0625,0.25,-39.25,32.5625,-60.1875,0.0,0.0,0.0,1.0,0.0,-0.000488,0.0,0.33,2.8,-0.49,0.0,0.0,9.8,32
7.598981,0.34,2.8,9.31,-0.125,-0.25,0.1875,-39.25,32.5625,-60.1875,0.0,0.0,0.0,1.0,0.0,-0.000488,0.0,0.45,2.8,-0.49,0.0,0.0,9.8,32
7.609946,0.46,2.8,9.31,-0.1875,-0.1875,0.125,-39.25,32.5625,-60.1875,0.0,0.0,0.0,1.0,0.0,-0.000488,0.0,0.59,2.84,-0.48,0.0,0.0,9.8,32
7.620912,0.6,2.84,9.32,-0.375,-0.125,0.1875,-39.25,32.5625,-60.1875,0.0,0.0,0.0,1.0,0.0,-0.000488,0.0,0.53,2.83,-0.46,0.0,0.0,9.8,32
7.631877,0.54,2.83,9.34,0.0,-0.25,0.125,-24.25,29.5625,-59.75,0.0,0.0,0.0,1.0,0.0,-0.000488,0.0,0.43,2.82,-0.47,0.0,0.0,9.8,32
7.642842,0.44,2.82,9.32,0.125,-0.125,0.25,-24.25,29.5625,-59.75,0.0,0.0,0.0,1.0,0.0,-0.000488,0.0,0.27,2.83,-0.46,0.0,0.0,9.8,32
7.653808,0.28,2.83,9.33,0.125,0.0,0.125,-24.25,29.5625,-59.75,0.0,0.0,0.0,1.0,0.0,-0.000488,0.0,-0.18,2.8,-0.49,0.0,0.0,9.8,32
7.664773,-0.17,2.8,9.31,-0.0625,-0.3125,0.125,-24.25,29.5625,-59.75,0.0,0.0,0.0,1.0,0.0,-0.000488,0.0,-0.35,2.79,-0.45,0.0,0.0,9.8,32
7.675738,-0.34,2.79,9.35,-0.4375,-0.375,0.25,-24.25,29.5625,-59.75,0.0,0.0,0.0,1.0,0.0,-0.000488,0.0,-0.56,2.79,-0.42,0.0,0.0,9.8,32
7.686704,-0.56,2.79,9.38,-0.125,-0.0625,0.1875,-25.75,30.6875,-59.75,0.0,0.0,0.0,1.0,0.0,-0.000488,0.0,-0.83,2.82,-0.42,0.0,0.0,9.8,32
7.697669,-1.18,2.79,9.37,0.0,-0.1875,0.25,-25.75,30.6875,-59.75,0.0,0.0,0.0,1.0,0.0,-0.000488,0.0,-1.19,2.79,-0.43,0.0,0.0,9.8,32
7.708634,-1.3,2.8,9.37,-0.0625,0.0,0.125,-25.75,30.6875,-59.75,0.0,0.0,0.0,1.0,0.0,-0.000488,0.0,-1.4,2.76,-0.4,0.0,0.0,9.8,32
7.7196,-1.39,2.76,9.4,-0.25,-0.0625,0.25,-25.75,30.6875,-59.75,0.0,0.0,0.0,1.0,0.0,-0.000488,0.0,-1.38,2.8,-0.42,0.0,0.0,9.8,32
7.730565,-1.37,2.8,9.38,-0.1875,-0.4375,0.0625,-25.75,30.6875,-59.75,0.0,0.0,0.0,1.0,0.0,-0.000488,0.0,-1.38,2.8,-0.42,0.0,0.0,9.8,32
7.74153,-1.15,2.78,9.39,-0.125,-0.25,0.25,-40.875,32.25,-61.0,0.0,0.0,0.0,1.0,0.0,-0.000488,0.0,-1.0,2.79,-0.41,0.0,0.0,9.8,32
7.752496,-0.99,2.79,9.39,0.0,0.0,0.25,-40.875,32.25,-61.0,0.0,0.0,0.0,1.0,0.0,-0.000488,0.0,-0.75,2.82,-0.45,0.0,0.0,9.8,32
7.763461,-0.74,2.82,9.35,0.1875,-0.25,0.1875,-40.875,32.25,-61.0,0.0,0.0,0.0,1.0,0.0,-0.000488,0.0,-0.31,2.81,-0.45,0.0,0.0,9.8,32
7.774426,-0.3,2.81,9.35,0.0625,-0.3125,0.1875,-40.875,32.25,-61.0,0.0,0.0,0.0,1.0,0.0,-0.000488,0.0,-0.08,2.81,-0.44,0.0,0.0,9.8,32
7.785392,-0.07,2.81,9.36,0.25,-0.25,0.1875,-39.75,31.5,-59.375,0.0,0.0,0.0,1.0,0.0,-0.000488,0.0,0.11,2.81,-0.45,0.0,0.0,9.8,32
7.796357,0.12,2.81,9.35,-0.1875,-0.375,0.1875,-39.75,31.5,-59.375,0.0,0.0,0.0,1.0,0.0,-0.000488,0.0,0.31,2.82,-0.45,0.0,0.0,9.8,32
7.807322,0.55,2.82,9.33,0.0,-0.375,0.25,-39.75,31.5,-59.375,0.0,0.0,0.0,1.0,0.0,-0.000488,0.0,0.54,2.82,-0.47,0.0,0.0,9.8,32
7.818288,0.6,2.81,9.33,0.0625,-0.1875,0.25,-39.75,31.5,-59.375,0.0,0.0,0.0,1.0,0.0,-0.000488,0.0,0.56,2.83,-0.47,0.0,0.0,9.8,32
7.829253,0.57,2.83,9.32,-0.25,-0.25,0.1875,-39.75,31.5,-59.375,0.0,0.0,0.0,1.0,0.0,-0.000488,0.0,0.56,2.83,-0.47,0.0,0.0,9.8,32
7.840218,0.45,2.82,9.35,0.0625,-0.125,0.25,-24.375,29.5625,-59.75,0.0,0.0,0.0,1.0,0.0,-0.000488,0.0,0.1,2.82,-0.46,0.0,0.0,9.8,32
7.851184,0.11,2.82,9.34,0.0,0.0625,0.1875,-24.375,29.5625,-59.75,0.0,0.0,0.0,1.0,0.0,-0.000488,0.0,-0.14,2.82,-0.47,0.0,0.0,9.8,32
7.862149,-0.13,2.82,9.32,-0.1875,-0.125,0.125,-24.375,29.5625,-59.75,0.0,0.0,0.0,1.0,0.0,-0.000488,0.0,-0.33,2.8,-0.45,0.0,0.0,9.8,32
7.873115,-0.32,2.8,9.34,-0.0625,-0.125,0.1875,-24.375,29.5625,-59.75,0.0,0.0,0.0,1.0,0.0,-0.000488,0.0,-0.55,2.79,-0.41,0.0,0.0,9.8,32
7.88408,-0.54,2.79,9.39,-0.25,0.0,0.125,-27.6875,30.25,-58.5625,0.0,0.0,0.0,1.0,0.0,-0.000488,0.0,-1.02,2.78,-0.41,0.0,0.0,9.8,32
7.895045,-1.01,2.78,9.39,-0.375,-0.1875,0.3125,-27.6875,30.25,-58.5625,0.0,0.0,0.0,1.0,0.0,-0.000488,0.0,-1.16,2.78,-0.42,0.0,0.0,9.8,32
7.906011,-1.15,2.78,9.38,-0.25,-0.125,0.0,-27.6875,30.25,-58.5625,0.0,0.0,0.0,1.0,0.0,-0.000488,0.0,-1.29,2.81,-0.42,0.0,0.0,9.8,32
7.916976,-1.28,2.81,9.38,-0.125,-0.5625,0.125,-27.6875,30.25,-58.5625,0.0,0.0,0.0,1.0,0.0,-0.000488,0.0,-1.37,2.77,-0.39,0.0,0.0,9.8,32
7.927941,-1.36,2.77,9.4,-0.125,-0.4375,0.1875,-27.6875,30.25,-58.5625,0.0,0.0,0.0,1.0,0.0,-0.000488,0.0,-1.32,2.77,-0.42,0.0,0.0,9.8,32
7.938907,-1.16,2.8,9.37,-0.0625,-0.1875,0.25,-40.0625,32.25,-63.0625,0.0,0.0,0.0,1.0,0.0,-0.000488,0.0,-1.17,2.8,-0.43,0.0,0.0,9.8,32
7.949872,-1.01,2.79,9.38,-0.25,-0.4375,0.125,-40.0625,32.25,-63.0625,0.0,0.0,0.0,1.0,0.0,-0.000488,0.0,-0.54,2.8,-0.44,0.0,0.0,9.8,32
7.960837,-0.53,2.8,9.36,0.0,-0.5625,0.1875,-40.0625,32.25,-63.0625,0.0,0.0,0.0,1.0,0.0,-0.000488,0.0,-0.32,2.78,-0.45,0.0,0.0,9.8,32
7.971803,-0.31,2.78,9.35,-0.0625,-0.25,0.125,-40.0625,32.25,-63.0625,0.0,0.0,0.0,1.0,0.0,-0.000488,0.0,-0.14,2.78,-0.44,0.0,0.0,9.8,32
7.982768,-0.13,2.78,9.36,-0.125,-0.3125,0.1875,-40.0625,32.25,-63.0625,0.0,0.0,0.0,1.0,0.0,-0.000488,0.0,0.1,2.83,-0.45,0.0,0.0,9.8,32
7.993733,0.11,2.83,9.35,-0.0625,-0.125,0.1875,-38.5625,30.75,-60.5625,0.0,0.0,0.0,1.0,0.0,-0.000488,0.0,0.45,2.81,-0.46,0.0,0.0,9.8,32
8.004699,0.45,2.81,9.33,0.0625,-0.3125,0.25,-38.5625,30.75,-60.5625,0.0,0.0,0.0,1.0,0.0,-0.000488,0.0,0.56,2.82,-0.51,0.0,0.0,9.8,32
8.015664,0.57,2.82,9.29,-0.0625,-0.125,0.25,-38.5625,30.75,-60.5625,0.0,0.0,0.0,1.0,0.0,-0.000488,0.0,0.61,2.83,-0.49,0.0,0.0,9.8,32
8.026629,0.62,2.83,9.3,-0.0625,-0.375,0.1875,-38.5625,30.75,-60.5625,0.0,0.0,0.0,1.0,0.0,-0.000488,0.0,0.55,2.82,-0.48,0.0,0.0,9.8,32
8.037595,0.56,2.82,9.32,-0.1875,-0.3125,0.25,-24.375,29.5625,-61.0,0.0,0.0,0.0,1.0,0.0,-0.000488,0.0,0.32,2.81,-0.45,0.0,0.0,9.8,32
8.04856,0.14,2.8,9.34,-0.1875,-0.3125,0.25,-24.375,29.5625,-61.0,0.0,0.0,0.0,1.0,0.0,-0.000488,0.0,0.13,2.8,-0.46,0.0,0.0,9.8,32
8.059525,-0.09,2.81,9.37,-0.125,-0.5,0.25,-24.375,29.5625,-61.0,0.0,0.0,0.0,1.0,0.0,-0.000488,0.0,-0.32,2.81,-0.48,0.0,0.0,9.8,32
8.070491,-0.31,2.81,9.31,-0.1875,-0.125,0.125,-24.375,29.5625,-61.0,0.0,0.0,0.0,1.0,0.0,-0.000488,0.0,-0.77,2.81,-0.43,0.0,0.0,9.8,32
8.081456,-0.76,2.81,9.37,0.0,-0.125,0.0625,-24.375,29.5625,-61.0,0.0,0.0,0.0,1.0,0.0,-0.000488,0.0,-0.98,2.78,-0.43,0.0,0.0,9.8,32
8.092421,-0.97,2.78,9.37,-0.125,-0.125,0.25,-25.875,30.375,-60.5625,0.0,0.0,0.0,1.0,0.0,-0.000488,0.0,-1.15,2.78,-0.43,0.0,0.0,9.8,32
8.103387,-1.14,2.78,9.37,0.0,-0.3125,0.125,-25.875,30.375,-60.5625,0.0,0.0,0.0,1.0,0.0,-0.000488,0.0,-1.36,2.78,-0.43,0.0,0.0,9.8,32
8.114352,-1.35,2.78,9.37,-0.125,-0.25,0.1875,-25.875,30.375,-60.5625,0.0,0.0,0.0,1.0,0.0,-0.000488,0.0,-1.39,2.78,-0.42,0.0,0.0,9.8,32
8.125317,-1.38,2.78,9.38,-0.3125,-0.25,0.0625,-25.875,30.375,-60.5625,0.0,0.0,0.0,1.0,0.0,-0.000488,0.0,-1.33,2.79,-0.41,0.0,0.0,9.8,32
8.136283,-1.32,2.79,9.39,-0.1875,-0.125,0.125,-40.875,31.5,-60.1875,0.0,0.0,0.0,1.0,0.0,-0.000488,0.0,-1.22,2.8,-0.39,0.0,0.0,9.8,32
8.147248,-1.21,2.8,9.4,-0.25,-0.3125,0.1875,-40.875,31.5,-60.1875,0.0,0.0,0.0,1.0,0.0,-0.000488,0.0,-0.86,2.79,-0.45,0.0,0.0,9.8,32
8.158213,-0.85,2.79,9.35,-0.0625,-0.1875,0.0625,-40.875,31.5,-60.1875,0.0,0.0,0.0,1.0,0.0,-0.000488,0.0,-0.56,2.8,-0.42,0.0,0.0,9.8,32
8.169179,-0.56,2.8,9.38,-0.0625,0.0,0.1875,-40.875,31.5,-60.1875,0.0,0.0,0.0,1.0,0.0,-0.000488,0.0,-0.34,2.8,-0.44,0.0,0.0,9.8,32
8.180144,-0.33,2.8,9.36,-0.0625,-0.1875,0.3125,-40.875,31.5,-60.1875,0.0,0.0,0.0,1.0,0.0,-0.000488,0.0,-0.17,2.81,-0.46,0.0,0.0,9.8,32
8.191109,-0.16,2.81,9.34,0.0625,-0.1875,0.1875,-39.375,31.5,-60.5625,0.0,0.0,0.0,1.0,0.0,-0.000488,0.0,0.26,2.82,-0.44,0.0,0.0,9.8,32
8.202075,0.27,2.82,9.36,-0.1875,-0.25,0.125,-39.375,31.5,-60.5625,0.0,0.0,0.0,1.0,0.0,-0.000488,0.0,0.43,2.82,-0.47,0.0,0.0,9.8,32
8.21304,0.52,2.82,9.33,-0.125,0.0,0.1875,-39.375,31.5,-60.5625,0.0,0.0,0.0,1.0,0.0,-0.000488,0.0,0.51,2.82,-0.46,0.0,0.0,9.8,32
8.224005,0.59,2.83,9.31,0.125,-0.3125,0.3125,-39.375,31.5,-60.5625,0.0,0.0,0.0,1.0,0.0,-0.000488,0.0,0.47,2.82,-0.46,0.0,0.0,9.8,32
8.234971,0.48,2.82,9.33,0.0625,-0.3125,0.375,-39.375,31.5,-60.5625,0.0,0.0,0.0,1.0,0.0,-0.000488,0.0,0.47,2.82,-0.46,0.0,0.0,9.8,32
8.245936,0.36,2.82,9.35,0.0625,-0.25,0.0625,-20.5625,28.5,-64.375,0.0,0.0,0.0,1.0,0.0,-0.000488,0.0,0.16,2.82,-0.48,0.0,0.0,9.8,32
8.256901,0.17,2.82,9.31,0.0,-0.1875,0.125,-20.5625,28.5,-64.375,0.0,0.0,0.0,1.0,0.0,-0.000488,0.0,-0.29,2.8,-0.45,0.0,0.0,9.8,32
8.267867,-0.28,2.8,9.34,-0.0625,-0.125,0.3125,-20.5625,28.5,-64.375,0.0,0.0,0.0,1.0,0.0,-0.000488,0.0,-0.48,2.79,-0.47,0.0,0.0,9.8,32
8.278832,-0.47,2.79,9.33,0.0,0.125,0.125,-20.5625,28.5,-64.375,0.0,0.0,0.0,1.0,0.0,-0.000488,0.0,-0.76,2.8,-0.44,0.0,0.0,9.8,32
8.289797,-0.75,2.8,9.36,0.0625,0.0625,0.125,-27.75,31.0625,-60.5625,0.0,0.0,0.0,1.0,0.0,-0.000488,0.0,-0.97,2.78,-0.43,0.0,0.0,9.8,32
8.300763,-1.27,2.79,9.38,-0.125,-0.1875,0.1875,-27.75,31.0625,-60.5625,0.0,0.0,0.0,1.0,0.0,-0.000488,0.0,-1.28,2.79,-0.42,0.0,0.0,9.8,32
8.311728,-1.37,2.8,9.38,-0.125,-0.25,0.1875,-27.75,31.0625,-60.5625,0.0,0.0,0.0,1.0,0.0,-0.000488,0.0,-1.38,2.79,-0.42,0.0,0.0,9.8,32
8.322693,-1.37,2.79,9.38,-0.1875,-0.1875,0.0625,-27.75,31.0625,-60.5625,0.0,0.0,0.0,1.0,0.0,-0.000488,0.0,-1.33,2.79,-0.41,0.0,0.0,9.8,32
8.333659,-1.32,2.79,9.39,-0.0625,-0.3125,0.1875,-41.5625,31.0625,-61.375,0.0,0.0,0.0,1.0,0.0,-0.000488,0.0,-1.05,2.78,-0.44,0.0,0.0,9.8,32
8.344624,-1.04,2.78,9.36,-0.25,-0.375,0.1875,-41.5625,31.0625,-61.375,0.0,0.0,0.0,1.0,0.0,-0.000488,0.0,-0.86,2.8,-0.43,0.0,0.0,9.8,32
8.355589,-0.85,2.8,9.37,0.0625,-0.1875,0.125,-41.5625,31.0625,-61.375,0.0,0.0,0.0,1.0,0.0,-0.000488,0.0,-0.61,2.79,-0.45,0.0,0.0,9.8,32
8.366555,-0.6,2.79,9.35,-0.125,-0.25,0.125,-41.5625,31.0625,-61.375,0.0,0.0,0.0,1.0,0.0,-0.000488,0.0,-0.35,2.81,-0.45,0.0,0.0,9.8,32
8.37752,-0.34,2.81,9.34,-0.25,-0.3125,0.1875,-41.5625,31.0625,-61.375,0.0,0.0,0.0,1.0,0.0,-0.000488,0.0,0.05,2.82,-0.47,0.0,0.0,9.8,32
8.388486,0.06,2.82,9.32,-0.125,-0.3125,0.0625,-37.875,30.75,-60.5625,0.0,0.0,0.0,1.0,0.0,-0.000488,0.0,0.24,2.82,-0.46,0.0,0.0,9.8,32
8.399451,0.41,2.8,9.35,-0.125,-0.1875,0.1875,-37.875,30.75,-60.5625,0.0,0.0,0.0,1.0,0.0,-0.000488,0.0,0.4,2.8,-0.45,0.0,0.0,9.8,32
8.410416,0.53,2.79,9.3,-0.0625,-0.125,0.3125,-37.875,30.75,-60.5625,0.0,0.0,0.0,1.0,0.0,-0.000488,0.0,0.58,2.85,-0.47,0.0,0.0,9.8,32
8.421382,0.59,2.85,9.33,-0.1875,-0.4375,0.3125,-37.875,30.75,-60.5625,0.0,0.0,0.0,1.0,0.0,-0.000488,0.0,0.49,2.84,-0.49,0.0,0.0,9.8,32
8.432347,0.5,2.84,9.31,0.0625,-0.0625,0.25,-37.875,30.75,-60.5625,0.0,0.0,0.0,1.0,0.0,-0.000488,0.0,0.49,2.84,-0.49,0.0,0.0,9.8,32
8.443312,0.37,2.82,9.31,-0.0625,-0.125,0.1875,-23.5625,30.0,-61.0625,0.0,0.0,0.0,1.0,0.0,-0.000488,0.0,-0.04,2.82,-0.44,0.0,0.0,9.8,32
8.454278,-0.03,2.82,9.36,-0.0625,-0.1875,0.1875,-23.5625,30.0,-61.0625,0.0,0.0,0.0,1.0,0.0,-0.000488,0.0,-0.28,2.81,-0.46,0.0,0.0,9.8,32
8.465243,-0.27,2.81,9.34,0.0,-0.25,0.125,-23.5625,30.0,-61.0625,0.0,0.0,0.0,1.0,0.0,-0.000488,0.0,-0.45,2.79,-0.45,0.0,0.0,9.8,32
8.476208,-0.44,2.79,9.34,0.0,-0.375,0.1875,-23.5625,30.0,-61.0625,0.0,0.0,0.0,1.0,0.0,-0.000488,0.0,-0.73,2.79,-0.45,0.0,0.0,9.8,32
8.487174,-0.72,2.79,9.35,0.125,-0.25,0.25,-28.0625,30.375,-61.0,0.0,0.0,0.0,1.0,0.0,-0.000488,0.0,-1.13,2.8,-0.43,0.0,0.0,9.8,32
8.498139,-1.12,2.8,9.37,0.25,-0.25,0.25,-28.0625,30.375,-61.0,0.0,0.0,0.0,1.0,0.0,-0.000488,0.0,-1.27,2.8,-0.43,0.0,0.0,9.8,32
8.509104,-1.26,2.8,9.37,-0.1875,-0.25,0.3125,-28.0625,30.375,-61.0,0.0,0.0,0.0,1.0,0.0,-0.000488,0.0,-1.36,2.79,-0.42,0.0,0.0,9.8,32
8.52007,-1.35,2.79,9.38,-0.1875,-0.1875,0.1875,-28.0625,30.375,-61.0,0.0,0.0,0.0,1.0,0.0,-0.000488,0.0,-1.37,2.77,-0.39,0.0,0.0,9.8,32
8.531035,-1.36,2.77,9.4,-0.1875,-0.1875,0.1875,-28.0625,30.375,-61.0,0.0,0.0,0.0,1.0,0.0,-0.000488,0.0,-1.25,2.77,-0.44,0.0,0.0,9.8,32
8.542,-1.24,2.77,9.36,-0.1875,-0.4375,0.125,-40.875,31.0625,-65.5625,0.0,0.0,0.0,1.0,0.0,-0.000488,0.0,-1.08,2.78,-0.43,0.0,0.0,9.8,32
8.552966,-0.85,2.8,9.38,-0.25,0.0,0.0625,-40.875,31.0625,-65.5625,0.0,0.0,0.0,1.0,0.0,-0.000488,0.0,-0.86,2.8,-0.42,0.0,0.0,9.8,32
8.563931,-0.63,2.8,9.36,-0.1875,-0.625,0.3125,-40.875,31.0625,-65.5625,0.0,0.0625,0.0,1.0,0.0,-0.00061,0.0,-0.21,2.81,-0.43,0.01,0.0,9.8,32
8.574896,-0.2,2.81,9.37,-0.125,-0.6875,0.3125,-40.875,31.0625,-65.5625,0.0,0.0625,0.0,1.0,0.0,-0.00061,0.0,0.0,2.81,-0.48,0.01,0.0,9.8,32
8.585862,0.01,2.81,9.32,-0.25,-0.1875,0.125,-40.875,31.0625,-65.5625,0.0,0.0625,0.0,1.0,0.0,-0.00061,0.0,0.23,2.82,-0.45,0.01,0.0,9.8,32
8.596827,0.24,2.82,9.34,-0.125,-0.4375,0.25,-35.5625,30.375,-63.875,0.0,0.0625,0.0,1.0,0.0,-0.00061,0.0,0.39,2.82,-0.49,0.01,0.0,9.8,32
8.607792,0.4,2.82,9.31,-0.1875,-0.3125,0.125,-35.5625,30.375,-63.875,0.0,0.0625,0.0,1.0,0.0,-0.00061,0.0,0.55,2.8,-0.48,0.01,0.0,9.8,32
8.618758,0.56,2.8,9.32,-0.3125,-0.125,0.0625,-35.5625,30.375,-63.875,0.0,0.0625,0.0,1.0,0.0,-0.00061,0.0,0.57,2.83,-0.5,0.01,0.0,9.8,32
8.629723,0.58,2.83,9.3,0.0,-0.375,0.125,-35.5625,30.375,-63.875,0.0,0.0625,0.0,1.0,0.0,-0.00061,0.0,0.48,2.81,-0.5,0.01,0.0,9.8,32
8.640688,0.49,2.81,9.29,-0.1875,-0.25,0.25,-20.5625,28.875,-63.875,0.0,0.0625,0.0,1.0,0.0,-0.00061,0.0,0.2,2.82,-0.46,0.01,0.0,9.8,32
8.651654,0.0,2.84,9.35,0.0625,-0.25,0.25,-20.5625,28.875,-63.875,0.0,0.0625,0.0,1.0,0.0,-0.00061,0.0,-0.01,2.84,-0.45,0.01,0.0,9.8,32
8.662619,-0.25,2.8,9.33,0.0,-0.25,0.0,-20.5625,28.875,-63.875,0.0,0.0625,0.0,1.0,0.0,-0.00061,0.0,-0.44,2.8,-0.45,0.01,0.0,9.8,32
8.673584,-0.43,2.8,9.35,0.0,-0.3125,0.25,-20.5625,28.875,-63.875,0.0,0.0625,0.0,1.0,0.0,-0.00061,0.0,-0.93,2.8,-0.44,0.01,0.0,9.8,32
8.68455,-0.92,2.8,9.36,-0.3125,-0.5625,0.25,-20.5625,28.875,-63.875,0.0,0.0625,0.0,1.0,0.0,-0.00061,0.0,-1.13,2.8,-0.43,0.01,0.0,9.8,32
8.695515,-1.12,2.8,9.37,-0.125,-0.25,0.3125,-25.0625,28.875,-64.25,0.0,0.0625,0.0,1.0,0.0,-0.00061,0.0,-1.27,2.8,-0.43,0.01,0.0,9.8,32
8.70648,-1.25,2.8,9.37,-0.1875,-0.1875,0.1875,-25.0625,28.875,-64.25,0.0,0.0625,0.0,1.0,0.0,-0.00061,0.0,-1.34,2.79,-0.42,0.01,0.0,9.8,32
8.717446,-1.33,2.79,9.38,0.0,-0.125,0.125,-25.0625,28.875,-64.25,0.0,0.0625,0.0,1.0,0.0,-0.00061,0.0,-1.36,2.78,-0.42,0.01,0.0,9.8,32
8.728411,-1.35,2.78,9.38,0.125,0.0625,0.3125,-25.0625,28.875,-64.25,0.0,0.0625,0.0,1.0,0.0,-0.00061,0.0,-1.25,2.76,-0.44,0.01,0.0,9.8,32
8.739376,-1.12,2.8,9.39,0.0625,-0.3125,0.125,-40.5,30.75,-60.5625,0.0,0.0625,0.0,1.0,0.0,-0.00061,0.0,-1.13,2.8,-0.41,0.01,0.0,9.8,32
8.750342,-0.92,2.8,9.38,0.0625,-0.1875,0.25,-40.5,30.75,-60.5625,0.0,0.0625,0.0,1.0,0.0,-0.00061,0.0,-0.41,2.8,-0.45,0.01,0.0,9.8,32
8.761307,-0.4,2.8,9.35,0.0,-0.1875,0.3125,-40.5,30.75,-60.5625,0.0,0.0625,0.0,1.0,0.0,-0.00061,0.0,-0.25,2.82,-0.46,0.01,0.0,9.8,32
8.772272,-0.23,2.82,9.34,-0.25,-0.125,0.125,-40.5,30.75,-60.5625,0.0,0.0625,0.0,1.0,0.0,-0.00061,0.0,-0.04,2.8,-0.47,0.01,0.0,9.8,32
8.783238,-0.03,2.8,9.33,-0.25,-0.5,0.1875,-40.5,30.75,-60.5625,0.0,0.0625,0.0,1.0,0.0,-0.00061,0.0,0.35,2.81,-0.44,0.01,0.0,9.8,32
8.794203,0.36,2.81,9.36,-0.125,-0.25,0.1875,-35.5625,30.75,-60.5625,0.0,0.0625,0.0,1.0,0.0,-0.00061,0.0,0.51,2.82,-0.48,0.01,0.0,9.8,32
8.805168,0.53,2.82,9.31,0.0,-0.25,0.125,-35.5625,30.75,-60.5625,0.0,0.0625,0.0,1.0,0.0,-0.00061,0.0,0.58,2.82,-0.46,0.01,0.0,9.8,32
8.816134,0.59,2.82,9.33,-0.125,-0.125,0.25,-35.5625,30.75,-60.5625,0.0,0.0625,0.0,1.0,0.0,-0.00061,0.0,0.58,2.82,-0.48,0.01,0.0,9.8,32
8.827099,0.59,2.82,9.32,0.0625,-0.125,0.1875,-35.5625,30.75,-60.5625,0.0,0.0625,0.0,1.0,0.0,-0.00061,0.0,0.39,2.82,-0.46,0.01,0.0,9.8,32
8.838064,0.4,2.82,9.33,-0.125,-0.25,0.375,-23.5625,30.0,-61.0625,0.0,0.0625,0.0,1.0,0.0,-0.00061,0.0,0.23,2.82,-0.49,0.01,0.0,9.8,32
8.84903,0.24,2.82,9.3,-0.0625,-0.1875,0.25,-23.5625,30.0,-61.0625,0.0,0.0625,0.0,1.0,0.0,-0.00061,0.0,0.0,2.81,-0.45,0.01,0.0,9.8,32
8.859995,0.01,2.81,9.35,0.0,-0.375,0.3125,-23.5625,30.0,-61.0625,0.0,0.0625,0.0,1.0,0.0,-0.00061,0.0,-0.24,2.8,-0.47,0.01,0.0,9.8,32
8.87096,-0.23,2.8,9.33,-0.1875,-0.1875,0.125,-23.5625,30.0,-61.0625,0.0,0.0625,0.0,1.0,0.0,-0.00061,0.0,-0.65,2.8,-0.44,0.01,0.0,9.8,32
8.881926,-0.64,2.8,9.36,-0.3125,-0.1875,0.25,-23.5625,30.0,-61.0625,0.0,0.0625,0.0,1.0,0.0,-0.00061,0.0,-0.89,2.8,-0.41,0.01,0.0,9.8,32
8.892891,-0.88,2.8,9.39,-0.0625,-0.0625,0.1875,-29.25,29.5625,-60.1875,0.0,0.0625,0.0,1.0,0.0,-0.00061,0.0,-1.08,2.77,-0.42,0.01,0.0,9.8,32
8.903857,-1.22,2.76,9.38,-0.0625,-0.25,0.3125,-29.25,29.5625,-60.1875,0.0,0.0625,0.0,1.0,0.0,-0.00061,0.0,-1.23,2.76,-0.42,0.01,0.0,9.8,32
8.914822,-1.37,2.78,9.39,-0.0625,-0.1875,0.125,-29.25,29.5625,-60.1875,0.0,0.0625,0.0,1.0,0.0,-0.00061,0.0,-1.37,2.79,-0.39,0.01,0.0,9.8,32
8.925787,-1.36,2.79,9.41,-0.125,-0.1875,0.25,-29.25,29.5625,-60.1875,0.0,0.0625,0.0,1.0,0.0,-0.00061,0.0,-1.27,2.78,-0.42,0.01,0.0,9.8,32
8.936753,-1.25,2.78,9.38,-0.25,-0.25,0.1875,-29.25,29.5625,-60.1875,0.0,0.0625,0.0,1.0,0.0,-0.00061,0.0,-1.27,2.78,-0.42,0.01,0.0,9.8,32
8.947718,-1.1,2.79,9.37,0.1875,-0.0625,0.25,-44.5625,31.5,-62.25,0.0,0.0625,0.0,1.0,0.0,-0.00061,0.0,-0.69,2.78,-0.45,0.01,0.0,9.8,32
8.958683,-0.68,2.78,9.35,-0.3125,-0.4375,0.0625,-44.5625,31.5,-62.25,0.0,0.0625,0.0,1.0,0.0,-0.00061,0.0,-0.43,2.81,-0.45,0.01,0.0,9.8,32
8.969649,-0.42,2.81,9.35,-0.1875,-0.125,0.1875,-44.5625,31.5,-62.25,0.0,0.0625,0.0,1.0,0.0,-0.00061,0.0,-0.25,2.82,-0.47,0.01,0.0,9.8,32
8.980614,-0.24,2.82,9.32,0.0625,-0.25,0.375,-44.5625,31.5,-62.25,0.0,0.0625,0.0,1.0,0.0,-0.00061,0.0,0.16,2.82,-0.45,0.01,0.0,9.8,32
8.991579,0.17,2.82,9.34,0.1875,-0.125,0.1875,-36.75,30.75,-59.75,0.0,0.0625,0.0,1.0,0.0,-0.00061,0.0,0.37,2.82,-0.49,0.01,0.0,9.8,32
9.002545,0.38,2.82,9.31,-0.3125,-0.5625,0.1875,-36.75,30.75,-59.75,0.0,0.0625,0.0,1.0,0.0,-0.00061,0.0,0.48,2.82,-0.47,0.01,0.0,9.8,32
9.01351,0.49,2.82,9.33,-0.1875,-0.4375,0.125,-36.75,30.75,-59.75,0.0,0.0625,0.0,1.0,0.0,-0.00061,0.0,0.57,2.81,-0.49,0.01,0.0,9.8,32
9.024475,0.58,2.81,9.3,-0.1875,-0.1875,0.1875,-36.75,30.75,-59.75,0.0,0.0625,0.0,1.0,0.0,-0.00061,0.0,0.53,2.81,-0.48,0.01,0.0,9.8,32
9.035441,0.55,2.81,9.32,-0.125,-0.25,0.125,-36.75,30.75,-59.75,0.0,0.0625,0.0,1.0,0.0,-0.00061,0.0,0.4,2.82,-0.47,0.01,0.0,9.8,32
9.046406,0.42,2.82,9.33,-0.125,-0.0625,0.25,-21.75,29.5625,-60.5625,0.0,0.0625,0.0,1.0,0.0,-0.00061,0.0,0.24,2.82,-0.46,0.01,0.0,9.8,32
9.057371,0.06,2.82,9.37,-0.0625,-0.125,0.1875,-21.75,29.5625,-60.5625,0.0,0.0625,0.0,1.0,0.0,-0.00061,0.0,0.05,2.82,-0.43,0.01,0.0,9.8,32
9.068337,-0.38,2.82,9.31,-0.0625,-0.1875,0.125,-21.75,29.5625,-60.5625,0.0,0.0625,0.0,1.0,0.0,-0.00061,0.0,-0.63,2.78,-0.44,0.01,0.0,9.8,32
9.079302,-0.62,2.78,9.36,-0.375,-0.3125,0.0625,-21.75,29.5625,-60.5625,0.0,0.0625,0.0,1.0,0.0,-0.00061,0.0,-0.85,2.77,-0.44,0.01,0.0,9.8,32
9.090267,-0.84,2.77,9.36,-0.375,-0.25,0.3125,-21.75,29.5625,-60.5625,0.0,0.0625,0.0,1.0,0.0,-0.00061,0.0,-1.08,2.8,-0.44,0.01,0.0,9.8,32
9.101233,-1.07,2.8,9.36,0.1875,0.0,0.1875,-31.5,30.75,-60.5625,0.0,0.0625,0.0,1.0,0.0,-0.00061,0.0,-1.32,2.8,-0.43,0.01,0.0,9.8,32
9.112198,-1.31,2.8,9.37,0.0,0.0,0.1875,-31.5,30.75,-60.5625,0.0,0.0625,0.0,1.0,0.0,-0.00061,0.0,-1.41,2.78,-0.43,0.01,0.0,9.8,32
9.123163,-1.39,2.78,9.37,-0.125,-0.25,0.1875,-31.5,30.75,-60.5625,0.0,0.0625,0.0,1.0,0.0,-0.00061,0.0,-1.36,2.76,-0.41,0.01,0.0,9.8,32
9.134129,-1.35,2.76,9.39,0.0625,-0.3125,0.25,-31.5,30.75,-60.5625,0.0,0.0625,0.0,1.0,0.0,-0.00061,0.0,-1.15,2.79,-0.42,0.01,0.0,9.8,32
9.145094,-0.95,2.79,9.38,-0.1875,-0.3125,0.25,-43.875,31.0625,-61.375,0.0,0.0625,0.0,1.0,0.0,-0.00061,0.0,-0.96,2.79,-0.42,0.01,0.0,9.8,32
9.156059,-0.74,2.77,9.39,0.0,-0.3125,0.125,-43.875,31.0625,-61.375,0.0,0.0625,0.0,1.0,0.0,-0.00061,0.0,-0.5,2.78,-0.47,0.01,0.0,9.8,32
9.167025,-0.48,2.78,9.33,-0.0625,-0.4375,0.1875,-43.875,31.0625,-61.375,0.0,0.0625,0.0,1.0,0.0,-0.00061,0.0,-0.07,2.82,-0.44,0.01,0.0,9.8,32
9.17799,-0.06,2.82,9.36,-0.125,-0.125,0.1875,-43.875,31.0625,-61.375,0.0,0.0625,0.0,1.0,0.0,-0.00061,0.0,0.14,2.82,-0.47,0.01,0.0,9.8,32
9.188955,0.15,2.82,9.32,0.0,-0.0625,0.125,-43.875,31.0625,-61.375,0.0,0.0625,0.0,1.0,0.0,-0.00061,0.0,0.34,2.83,-0.48,0.01,0.0,9.8,32
9.199921,0.35,2.83,9.32,-0.125,-0.1875,0.125,-35.25,30.0,-60.5625,0.0,0.0625,0.0,1.0,0.0,-0.00061,0.0,0.51,2.82,-0.46,0.01,0.0,9.8,32
9.210886,0.52,2.82,9.34,-0.0625,-0.125,0.25,-35.25,30.0,-60.5625,0.0,0.0625,0.0,1.0,0.0,-0.00061,0.0,0.56,2.83,-0.47,0.01,0.0,9.8,32
9.221851,0.57,2.83,9.33,0.0,-0.3125,0.1875,-35.25,30.0,-60.5625,0.0,0.0625,0.0,1.0,0.0,-0.00061,0.0,0.53,2.84,-0.49,0.01,0.0,9.8,32
9.232817,0.54,2.84,9.31,-0.125,-0.3125,0.25,-35.25,30.0,-60.5625,0.0,0.0625,0.0,1.0,0.0,-0.00061,0.0,0.41,2.82,-0.48,0.01,0.0,9.8,32
9.243782,0.43,2.82,9.31,-0.0625,-0.375,0.0625,-22.5,29.5625,-59.0,0.0,0.0625,0.0,1.0,0.0,-0.00061,0.0,0.26,2.82,-0.45,0.01,0.0,9.8,32
9.254747,0.27,2.82,9.34,0.0,0.0,0.125,-22.5,29.5625,-59.0,0.0,0.0625,0.0,1.0,0.0,-0.00061,0.0,-0.18,2.82,-0.45,0.01,0.0,9.8,32
9.265713,-0.17,2.82,9.35,-0.0625,-0.0625,0.125,-22.5,29.5625,-59.0,0.0,0.0625,0.0,1.0,0.0,-0.00061,0.0,-0.37,2.8,-0.45,0.01,0.0,9.8,32
9.276678,-0.35,2.8,9.34,-0.1875,-0.375,0.125,-22.5,29.5625,-59.0,0.0,0.0625,0.0,1.0,0.0,-0.00061,0.0,-0.6,2.8,-0.45,0.01,0.0,9.8,32
9.287643,-0.59,2.8,9.35,0.0,-0.25,0.3125,-22.5,29.5625,-59.0,0.0,0.0625,0.0,1.0,0.0,-0.00061,0.0,-0.85,2.79,-0.42,0.01,0.0,9.8,32
9.298609,-0.84,2.79,9.38,-0.3125,-0.3125,0.1875,-30.0,31.0625,-60.25,0.0,0.0625,0.0,1.0,0.0,-0.00061,0.0,-1.21,2.79,-0.42,0.01,0.0,9.8,32
9.309574,-1.2,2.79,9.38,-0.25,-0.125,0.25,-30.0,31.0625,-60.25,0.0,0.0625,0.0,1.0,0.0,-0.00061,0.0,-1.3,2.77,-0.38,0.01,0.0,9.8,32
9.320539,-1.29,2.77,9.41,-0.125,-0.4375,0.125,-30.0,31.0625,-60.25,0.0,0.0625,0.0,1.0,0.0,-0.00061,0.0,-1.37,2.79,-0.42,0.01,0.0,9.8,32
9.331505,-1.35,2.79,9.38,0.0,-0.1875,0.3125,-30.0,31.0625,-60.25,0.0,0.0625,0.0,1.0,0.0,-0.00061,0.0,-1.3,2.78,-0.44,0.01,0.0,9.8,32
9.34247,-1.29,2.78,9.36,-0.25,-0.25,0.125,-30.0,31.0625,-60.25,0.0,0.0625,0.0,1.0,0.0,-0.00061,0.0,-1.16,2.77,-0.4,0.01,0.0,9.8,32
9.353435,-1.14,2.77,9.39,0.0625,-0.5,0.1875,-43.875,31.0625,-61.875,0.0,0.0625,0.0,1.0,0.0,-0.00061,0.0,-0.98,2.8,-0.45,0.01,0.0,9.8,32
9.364401,-0.97,2.8,9.35,-0.125,-0.4375,0.25,-43.875,31.0625,-61.875,0.0,0.0625,0.0,1.0,0.0,-0.00061,0.0,-0.78,2.8,-0.44,0.01,0.0,9.8,32
9.375366,-0.28,2.8,9.34,-0.25,-0.0625,0.125,-43.875,31.0625,-61.875,0.0,0.0625,0.0,1.0,0.0,-0.00061,0.0,-0.29,2.8,-0.46,0.01,0.0,9.8,32
9.386331,-0.08,2.8,9.32,0.125,0.125,0.25,-43.875,31.0625,-61.875,0.0,0.0625,0.0,1.0,0.0,-0.00061,0.0,0.12,2.83,-0.44,0.01,0.0,9.8,32
9.397297,0.13,2.83,9.36,-0.0625,-0.25,0.125,-43.875,31.0625,-61.875,0.0,0.0625,0.0,1.0,0.0,-0.00061,0.0,0.34,2.82,-0.47,0.01,0.0,9.8,32
9.408262,0.35,2.82,9.33,-0.0625,-0.3125,0.25,-35.5625,30.375,-60.5625,0.0,0.0625,0.0,1.0,0.0,-0.00061,0.0,0.56,2.82,-0.49,0.01,0.0,9.8,32
9.419228,0.57,2.82,9.3,-0.125,-0.125,0.1875,-35.5625,30.375,-60.5625,0.0,0.0625,0.0,1.0,0.0,-0.00061,0.0,0.58,2.81,-0.47,0.01,0.0,9.8,32
9.430193,0.59,2.81,9.32,-0.125,-0.25,0.125,-35.5625,30.375,-60.5625,0.0,0.0625,0.0,1.0,0.0,-0.00061,0.0,0.53,2.82,-0.48,0.01,0.0,9.8,32
9.441158,0.54,2.82,9.32,-0.0625,-0.0625,0.1875,-35.5625,30.375,-60.5625,0.0,0.0625,0.0,1.0,0.0,-0.00061,0.0,0.43,2.81,-0.48,0.01,0.0,9.8,32
9.452124,0.45,2.81,9.31,-0.5,-0.3125,0.125,-20.25,29.25,-60.5625,0.0,0.0625,0.0,1.0,0.0,-0.00061,0.0,0.09,2.81,-0.46,0.01,0.0,9.8,32
9.463089,0.1,2.81,9.33,-0.125,-0.125,0.1875,-20.25,29.25,-60.5625,0.0,0.0625,0.0,1.0,0.0,-0.00061,0.0,-0.14,2.8,-0.45,0.01,0.0,9.8,32
9.474054,-0.13,2.8,9.34,0.0,-0.3125,0.1875,-20.25,29.25,-60.5625,0.0,0.0625,0.0,1.0,0.0,-0.00061,0.0,-0.35,2.8,-0.46,0.01,0.0,9.8,32
9.48502,-0.33,2.8,9.33,-0.1875,-0.3125,0.25,-20.25,29.25,-60.5625,0.0,0.0625,0.0,1.0,0.0,-0.00061,0.0,-0.83,2.8,-0.44,0.01,0.0,9.8,32
9.495985,-0.82,2.8,9.36,-0.0625,-0.5,0.25,-20.25,29.25,-60.5625,0.0,0.0625,0.0,1.0,0.0,-0.00061,0.0,-1.01,2.8,-0.46,0.01,0.0,9.8,32
9.50695,-1.0,2.8,9.34,-0.125,-0.3125,0.125,-30.75,30.0,-61.5,0.0,0.0625,0.0,1.0,0.0,-0.00061,0.0,-1.17,2.78,-0.41,0.01,0.0,9.8,32
9.517916,-1.3,2.79,9.39,0.0,-0.375,0.3125,-30.75,30.0,-61.5,0.0,0.0625,0.0,1.0,0.0,-0.00061,0.0,-1.31,2.79,-0.4,0.01,0.0,9.8,32
9.528881,-1.35,2.79,9.39,0.0,-0.4375,0.3125,-30.75,30.0,-61.5,0.0,0.0625,0.0,1.0,0.0,-0.00061,0.0,-1.33,2.77,-0.44,0.01,0.0,9.8,32
9.539846,-1.32,2.77,9.36,0.0625,-0.25,0.25,-30.75,30.0,-61.5,0.0,0.0625,0.0,1.0,0.0,-0.00061,0.0,-1.17,2.77,-0.4,0.01,0.0,9.8,32
9.550812,-1.16,2.77,9.39,0.125,-0.125,0.1875,-30.75,30.0,-61.5,0.0,0.0625,0.0,1.0,0.0,-0.00061,0.0,-1.17,2.77,-0.4,0.01,0.0,9.8,32
9.561777,-0.99,2.79,9.38,-0.1875,-0.25,0.25,-43.5,31.875,-61.875,0.0,0.0625,0.0,1.0,0.0,-0.000671,0.0,-0.55,2.79,-0.44,0.01,0.0,9.8,32
9.572742,-0.54,2.79,9.36,-0.125,-0.1875,0.1875,-43.5,31.875,-61.875,0.0,0.0625,0.0,1.0,0.0,-0.000671,0.0,-0.32,2.8,-0.43,0.01,0.0,9.8,32
9.583708,-0.31,2.8,9.37,-0.1875,-0.25,0.125,-43.5,31.875,-61.875,0.0,0.0625,0.0,1.0,0.0,-0.000671,0.0,-0.13,2.81,-0.48,0.01,0.0,9.8,32
9.594673,-0.11,2.81,9.32,-0.1875,-0.25,0.1875,-43.5,31.875,-61.875,0.0,0.0625,0.0,1.0,0.0,-0.000671,0.0,0.09,2.81,-0.45,0.01,0.0,9.8,32
9.605638,0.1,2.81,9.34,-0.1875,-0.1875,0.1875,-36.0,30.375,-61.0625,0.0,0.0625,0.0,1.0,0.0,-0.000671,0.0,0.44,2.81,-0.45,0.01,0.0,9.8,32
9.616604,0.56,2.82,9.34,-0.0625,-0.5625,0.25,-36.0,30.375,-61.0625,0.0,0.0625,0.0,1.0,0.0,-0.000671,0.0,0.55,2.82,-0.45,0.01,0.0,9.8,32
9.627569,0.6,2.81,9.3,-0.0625,-0.4375,0.25,-36.0,30.375,-61.0625,0.0,0.0625,0.0,1.0,0.0,-0.000671,0.0,0.47,2.81,-0.47,0.01,0.0,9.8,32
9.638534,0.48,2.81,9.33,0.0625,0.0,0.125,-36.0,30.375,-61.0625,0.0,0.0625,0.0,1.0,0.0,-0.000671,0.0,0.32,2.82,-0.45,0.01,0.0,9.8,32
9.6495,0.33,2.82,9.35,0.0625,-0.25,0.25,-36.0,30.375,-61.0625,0.0,0.0625,0.0,1.0,0.0,-0.000671,0.0,0.32,2.82,-0.45,0.01,0.0,9.8,32
9.660465,0.14,2.82,9.33,0.0,-0.25,0.25,-22.0625,28.875,-60.5625,0.0,0.0625,0.0,1.0,0.0,-0.000671,0.0,-0.11,2.81,-0.44,0.01,0.0,9.8,32
9.67143,-0.1,2.81,9.36,0.0625,-0.1875,0.1875,-22.0625,28.875,-60.5625,0.0,0.0625,0.0,1.0,0.0,-0.000671,0.0,-0.52,2.8,-0.45,0.01,0.0,9.8,32
9.682396,-0.51,2.8,9.35,0.125,-0.3125,0.125,-22.0625,28.875,-60.5625,0.0,0.0625,0.0,1.0,0.0,-0.000671,0.0,-0.79,2.81,-0.45,0.01,0.0,9.8,32
9.693361,-0.78,2.81,9.35,0.0625,-0.4375,0.1875,-22.0625,28.875,-60.5625,0.0,0.0625,0.0,1.0,0.0,-0.000671,0.0,-1.0,2.77,-0.43,0.01,0.0,9.8,32
9.704326,-0.99,2.77,9.37,0.125,-0.0625,0.125,-28.5,29.5625,-65.5625,0.0,0.0625,0.0,1.0,0.0,-0.000671,0.0,-1.16,2.81,-0.4,0.01,0.0,9.8,32
9.715292,-1.15,2.81,9.39,-0.0625,-0.375,0.25,-28.5,29.5625,-65.5625,0.0,0.0625,0.0,1.0,0.0,-0.000671,0.0,-1.36,2.8,-0.42,0.01,0.0,9.8,32
9.726257,-1.35,2.8,9.38,-0.0625,-0.3125,0.3125,-28.5,29.5625,-65.5625,0.0,0.0625,0.0,1.0,0.0,-0.000671,0.0,-1.38,2.79,-0.44,0.01,0.0,9.8,32
9.737222,-1.36,2.79,9.36,-0.3125,-0.25,0.1875,-28.5,29.5625,-65.5625,0.0,0.0625,0.0,1.0,0.0,-0.000671,0.0,-1.32,2.78,-0.39,0.01,0.0,9.8,32
9.748188,-1.31,2.78,9.4,-0.375,-0.375,0.0625,-28.5,29.5625,-65.5625,0.0,0.0625,0.0,1.0,0.0,-0.000671,0.0,-1.22,2.8,-0.39,0.01,0.0,9.8,32
9.759153,-1.21,2.8,9.41,-0.3125,-0.3125,0.25,-39.375,30.375,-64.375,0.0,0.0625,0.0,1.0,0.0,-0.000671,0.0,-0.84,2.79,-0.42,0.01,0.0,9.8,32
9.770118,-0.57,2.79,9.34,-0.125,-0.0625,0.1875,-39.375,30.375,-64.375,0.0,0.0625,0.0,1.0,0.0,-0.000671,0.0,-0.59,2.79,-0.45,0.01,0.0,9.8,32
9.781084,-0.34,2.79,9.32,-0.125,-0.0625,0.125,-39.375,30.375,-64.375,0.0,0.0625,0.0,1.0,0.0,-0.000671,0.0,-0.18,2.81,-0.46,0.01,0.0,9.8,32
9.792049,-0.16,2.81,9.34,0.0,-0.1875,0.125,-39.375,30.375,-64.375,0.0,0.0625,0.0,1.0,0.0,-0.000671,0.0,0.26,2.82,-0.45,0.01,0.0,9.8,32
9.803014,0.28,2.82,9.34,-0.1875,-0.125,0.25,-39.375,30.375,-64.375,0.0,0.0625,0.0,1.0,0.0,-0.000671,0.0,0.41,2.8,-0.48,0.01,0.0,9.8,32
9.81398,0.43,2.8,9.31,-0.3125,-0.4375,0.25,-31.5,30.375,-65.5625,0.0,0.0625,0.0,1.0,0.0,-0.000671,0.0,0.53,2.82,-0.46,0.01,0.0,9.8,32
9.824945,0.54,2.82,9.33,-0.125,-0.1875,0.1875,-31.5,30.375,-65.5625,0.0,0.0625,0.0,1.0,0.0,-0.000671,0.0,0.55,2.83,-0.52,0.01,0.0,9.8,32
9.83591,0.56,2.83,9.28,0.0625,-0.125,0.25,-31.5,30.375,-65.5625,0.0,0.0625,0.0,1.0,0.0,-0.000671,0.0,0.47,2.82,-0.48,0.01,0.0,9.8,32
9.846876,0.48,2.82,9.32,-0.125,-0.375,0.1875,-31.5,30.375,-65.5625,0.0,0.0625,0.0,1.0,0.0,-0.000671,0.0,0.34,2.82,-0.48,0.01,0.0,9.8,32
9.857841,0.35,2.82,9.32,0.0,-0.125,0.0625,-19.875,29.5625,-62.6875,0.0,0.0625,0.0,1.0,0.0,-0.000671,0.0,0.15,2.81,-0.45,0.01,0.0,9.8,32
9.868806,-0.3,2.79,9.37,-0.1875,-0.0625,0.125,-19.875,29.5625,-62.6875,0.0,0.0625,0.0,1.0,0.0,-0.000671,0.0,-0.31,2.79,-0.43,0.01,0.0,9.8,32
9.879772,-0.49,2.79,9.36,0.0,-0.125,0.25,-19.875,29.5625,-62.6875,0.0,0.0625,0.0,1.0,0.0,-0.000671,0.0,-0.74,2.79,-0.42,0.01,0.0,9.8,32
