t,acc_X,acc_Y,acc_Z,gyr_X,gyr_Y,gyr_Z,mag_X,mag_Y,mag_Z,eul_heading,eul_roll,eul_pitch,quat_w,quat_x,quat_y,quat_z,lia_X,lia_Y,lia_Z,grv_X,grv_Y,grv_Z,temp
0.0,-0.36,2.78,9.35,0.0,-0.25,0.25,-32.1875,29.5625,-61.5625,360.0,-2.0625,-16.625,0.989258,0.144775,0.018555,0.0,0.0,-0.01,-0.02,-0.35,2.8,9.38,31
0.010903,-0.36,2.79,9.36,0.0,-0.1875,0.125,-32.1875,29.5625,-61.5625,360.0,-2.0625,-16.625,0.989258,0.144775,0.018555,0.0,0.0,-0.01,-0.04,-0.35,2.8,9.38,31
0.021806,-0.35,2.79,9.34,-0.1875,-0.1875,0.125,-32.1875,29.5625,-61.5625,360.0,-2.0625,-16.625,0.989258,0.144775,0.018555,0.0,0.0,-0.01,-0.04,-0.35,2.8,9.38,31
0.032709,-0.35,2.79,9.34,-0.3125,-0.125,0.125,-32.1875,29.5625,-61.5625,360.0,-2.0625,-16.625,0.989258,0.144775,0.018555,0.0,0.0,0.0,0.0,-0.35,2.8,9.38,31
0.043612,-0.35,2.8,9.38,0.0625,0.0,0.1875,-32.1875,29.5625,-61.5625,360.0,-2.0625,-16.625,0.989258,0.144775,0.018555,0.0,0.0,0.0,0.0,-0.35,2.8,9.38,31
0.054515,-0.35,2.77,9.36,0.0625,-0.0625,0.3125,-32.5625,30.6875,-62.0625,360.0,-2.0625,-16.625,0.989258,0.144775,0.018555,0.0,0.01,0.0,-0.03,-0.35,2.8,9.38,31
0.065418,-0.34,2.8,9.35,-0.125,-0.25,0.1875,-32.5625,30.6875,-62.0625,360.0,-2.0625,-16.625,0.989258,0.144775,0.018555,0.0,0.0,-0.02,-0.06,-0.35,2.8,9.38,31
0.076321,-0.35,2.78,9.32,0.0,-0.375,0.1875,-32.5625,30.6875,-62.0625,360.0,-2.0625,-16.625,0.989258,0.144775,0.018555,0.0,0.01,0.0,-0.03,-0.35,2.8,9.38,31
0.087224,-0.33,2.8,9.35,-0.25,-0.4375,0.125,-32.5625,30.6875,-62.0625,359.9375,-2.0625,-16.625,0.989258,0.144775,0.018555,0.0,0.01,0.0,-0.03,-0.35,2.8,9.38,31
0.098127,-0.34,2.81,9.35,-0.125,-0.625,0.125,-29.5625,28.75,-65.75,0.0,-2.0625,-16.625,0.989258,0.144775,0.018494,0.0,0.0,-0.01,-0.03,-0.35,2.8,9.38,31
0.10903,-0.35,2.79,9.35,0.0,-0.4375,0.0625,-29.5625,28.75,-65.75,0.0,-2.0625,-16.625,0.989258,0.144775,0.018494,0.0,0.0,0.0,-0.04,-0.35,2.8,9.38,31
0.119933,-0.34,2.8,9.34,0.0,-0.1875,0.1875,-29.5625,28.75,-65.75,0.0,-2.0625,-16.625,0.989258,0.144775,0.018494,0.0,0.0,-0.01,-0.04,-0.35,2.8,9.38,31
0.130836,-0.35,2.79,9.34,0.1875,0.0625,0.1875,-29.5625,28.75,-65.75,0.0,-2.0625,-16.625,0.989258,0.144775,0.018494,0.0,0.0,0.0,-0.04,-0.35,2.8,9.38,31
0.141739,-0.35,2.8,9.34,0.1875,0.125,0.3125,-29.5625,28.75,-65.75,0.0,-2.0625,-16.625,0.989258,0.144775,0.018494,0.0,-0.01,0.0,-0.03,-0.35,2.8,9.38,31
0.152642,-0.37,2.8,9.35,-0.25,-0.0625,0.1875,-31.375,29.875,-66.5625,0.0,-2.0625,-16.625,0.989258,0.144775,0.018494,0.0,0.0,0.02,-0.03,-0.35,2.8,9.38,31
0.163545,-0.34,2.83,9.35,0.125,-0.1875,0.1875,-31.375,29.875,-66.5625,0.0,-2.0625,-16.625,0.989258,0.144775,0.018494,0.0,0.01,-0.01,-0.03,-0.35,2.8,9.38,31
0.174448,-0.34,2.79,9.35,-0.0625,-0.1875,0.125,-31.375,29.875,-66.5625,0.0,-2.0625,-16.625,0.989258,0.144775,0.018494,0.0,0.0,-0.01,-0.04,-0.35,2.8,9.38,31
0.185351,-0.36,2.79,9.34,0.0625,-0.3125,0.3125,-31.375,29.875,-66.5625,0.0,-2.0625,-16.625,0.989258,0.144775,0.018494,0.0,0.01,-0.01,-0.03,-0.35,2.8,9.38,31
0.196254,-0.34,2.79,9.35,-0.0625,-0.4375,0.125,-31.375,29.875,-66.5625,0.0,-2.0625,-16.625,0.989258,0.144775,0.018494,0.0,-0.01,0.0,-0.04,-0.35,2.8,9.38,31
0.207157,-0.37,2.8,9.34,-0.0625,-0.1875,0.125,-29.5625,29.875,-65.375,0.0,-2.0625,-16.625,0.989258,0.144775,0.018494,0.0,0.0,-0.01,-0.02,-0.35,2.8,9.38,31
0.21806,-0.35,2.79,9.34,-0.0625,-0.125,0.25,-29.5625,29.875,-65.375,0.0,-2.0625,-16.625,0.989258,0.144775,0.018494,0.0,0.0,-0.01,-0.04,-0.35,2.8,9.38,31
0.228963,-0.37,2.79,9.36,0.0625,-0.1875,0.1875,-29.5625,29.875,-65.375,0.0,-2.0625,-16.625,0.989258,0.144775,0.018494,0.0,0.01,-0.02,-0.03,-0.35,2.8,9.38,31
0.239866,-0.34,2.78,9.35,-0.1875,-0.5,0.25,-29.5625,29.875,-65.375,0.0,-2.0625,-16.625,0.989258,0.144775,0.018494,0.0,0.0,0.0,-0.06,-0.35,2.8,9.38,31
0.250769,-0.35,2.8,9.32,-0.1875,-0.125,0.0625,-29.5625,29.875,-65.375,0.0,-2.0625,-16.625,0.989258,0.144775,0.018494,0.0,0.0,0.0,-0.06,-0.35,2.8,9.38,31
0.261672,-0.34,2.8,9.36,-0.25,-0.1875,0.125,-29.5625,29.5625,-64.5625,0.0,-2.0625,-16.625,0.989258,0.144775,0.018494,0.0,0.01,-0.01,-0.01,-0.35,2.8,9.38,31
0.272575,-0.34,2.79,9.37,0.0,-0.1875,0.25,-29.5625,29.5625,-64.5625,0.0,-2.0625,-16.625,0.989258,0.144775,0.018494,0.0,0.0,0.01,-0.03,-0.35,2.8,9.38,31
0.283478,-0.36,2.82,9.35,0.125,-0.3125,0.125,-29.5625,29.5625,-64.5625,0.0,-2.0625,-16.625,0.989258,0.144775,0.018494,0.0,0.0,-0.01,-0.02,-0.35,2.8,9.38,31
0.294381,-0.36,2.79,9.36,-0.25,-0.125,0.1875,-29.5625,29.5625,-64.5625,0.0,-2.0625,-16.625,0.989258,0.144775,0.018494,0.0,0.0,-0.01,-0.04,-0.35,2.8,9.38,31
0.305284,-0.35,2.79,9.34,-0.25,-0.5,0.1875,-29.5625,29.5625,-64.5625,0.0,-2.0625,-16.625,0.989258,0.144775,0.018494,0.0,0.0,-0.01,-0.04,-0.35,2.8,9.38,31
0.316187,-0.36,2.79,9.39,-0.1875,-0.3125,0.25,-30.6875,29.5625,-65.0,0.0,-2.0625,-16.625,0.989258,0.144775,0.018494,0.0,0.0,0.0,-0.04,-0.35,2.8,9.38,31
0.32709,-0.34,2.81,9.34,0.125,-0.0625,0.25,-30.6875,29.5625,-65.0,0.0,-2.0625,-16.625,0.989258,0.144775,0.018494,0.0,0.0,0.01,-0.05,-0.35,2.8,9.38,31
0.337993,-0.36,2.82,9.33,-0.125,-0.3125,0.1875,-30.6875,29.5625,-65.0,0.0,-2.0625,-16.625,0.989258,0.144775,0.018494,0.0,0.0,0.0,-0.05,-0.35,2.8,9.38,31
0.348896,-0.36,2.8,9.37,-0.1875,-0.5,0.3125,-30.6875,29.5625,-65.0,0.0,-2.0625,-16.625,0.989258,0.144775,0.018494,0.0,0.0,0.0,-0.01,-0.35,2.8,9.38,31
0.359798,-0.37,2.79,9.34,-0.125,-0.25,0.1875,-31.375,29.875,-64.875,0.0,-2.0625,-16.625,0.989258,0.144775,0.018494,0.0,-0.01,0.0,-0.03,-0.35,2.8,9.38,31
0.370701,-0.37,2.8,9.35,-0.0625,0.0625,0.25,-31.375,29.875,-64.875,0.0,-2.0625,-16.625,0.989258,0.144775,0.018494,0.0,0.0,0.0,-0.04,-0.35,2.8,9.38,31
0.381604,-0.36,2.8,9.34,0.0,-0.125,0.1875,-31.375,29.875,-64.875,0.0,-2.0625,-16.625,0.989258,0.144775,0.018494,0.0,0.01,0.0,-0.05,-0.35,2.8,9.38,31
0.392507,-0.34,2.8,9.33,-0.25,-0.25,0.1875,-31.375,29.875,-64.875,0.0,-2.0625,-16.625,0.989258,0.144775,0.018494,0.0,-0.01,-0.01,-0.05,-0.35,2.8,9.38,31
0.40341,-0.37,2.79,9.33,-0.1875,-0.5,0.0625,-31.375,29.875,-64.875,0.0,-2.0625,-16.625,0.989258,0.144775,0.018494,0.0,-0.01,-0.01,-0.05,-0.35,2.8,9.38,31
0.414313,-0.35,2.81,9.38,0.0,-0.25,0.25,-30.6875,29.875,-64.1875,0.0,-2.0625,-16.625,0.989258,0.144775,0.018494,0.0,0.0,0.0,-0.04,-0.35,2.8,9.38,31
0.425216,-0.36,2.8,9.34,-0.25,-0.3125,0.0625,-30.6875,29.875,-64.1875,0.0,-2.0625,-16.625,0.989258,0.144775,0.018494,0.0,0.0,0.0,-0.03,-0.35,2.8,9.38,31
0.436119,-0.35,2.8,9.35,0.125,-0.0625,0.25,-30.6875,29.875,-64.1875,0.0,-2.0625,-16.625,0.989258,0.144775,0.018494,0.0,0.0,0.0,-0.03,-0.35,2.8,9.38,31
0.447022,-0.34,2.8,9.35,-0.0625,-0.25,0.25,-30.6875,29.875,-64.1875,0.0,-2.0625,-16.625,0.989258,0.144775,0.018494,0.0,0.0,0.0,-0.03,-0.35,2.8,9.38,31
0.457925,-0.34,2.81,9.35,0.1875,0.0,0.1875,-30.6875,30.6875,-65.0,0.0,-2.0625,-16.625,0.989258,0.144775,0.018494,0.0,-0.01,0.01,-0.04,-0.35,2.8,9.38,31
0.468828,-0.34,2.79,9.33,-0.1875,-0.375,0.25,-30.6875,30.6875,-65.0,0.0,-2.0625,-16.625,0.989258,0.144775,0.018494,0.0,0.01,-0.01,-0.05,-0.35,2.8,9.38,31
0.479731,-0.34,2.8,9.36,-0.1875,-0.375,0.125,-30.6875,30.6875,-65.0,0.0,-2.0625,-16.625,0.989258,0.144775,0.018494,0.0,0.01,-0.01,-0.03,-0.35,2.8,9.38,31
0.490634,-0.34,2.79,9.35,0.0625,-0.0625,0.1875,-30.6875,30.6875,-65.0,0.0,-2.0625,-16.625,0.989258,0.144775,0.018494,0.0,0.01,0.0,0.0,-0.35,2.8,9.38,31
0.501537,-0.34,2.81,9.39,-0.125,-0.4375,0.1875,-30.6875,30.6875,-65.0,0.0,-2.0625,-16.625,0.989258,0.144775,0.018494,0.0,0.01,0.0,0.0,-0.35,2.8,9.38,31
0.51244,-0.34,2.81,9.34,0.125,-0.0625,0.25,-30.6875,30.6875,-64.5625,0.0,-2.0625,-16.625,0.989258,0.144836,0.018494,0.0,0.0,0.0,-0.03,-0.35,2.8,9.38,31
0.523343,-0.36,2.8,9.35,-0.125,-0.125,0.1875,-30.6875,30.6875,-64.5625,0.0,-2.0625,-16.625,0.989258,0.144836,0.018494,0.0,0.0,0.0,-0.05,-0.35,2.8,9.38,31
0.534246,-0.34,2.81,9.33,-0.0625,-0.3125,0.25,-30.6875,30.6875,-64.5625,0.0,-2.0625,-16.625,0.989258,0.144836,0.018494,0.0,0.01,0.0,-0.04,-0.35,2.8,9.38,31
0.545149,-0.34,2.81,9.34,-0.1875,-0.1875,0.1875,-30.6875,30.6875,-64.5625,0.0,-2.0625,-16.625,0.989258,0.144836,0.018494,0.0,0.0,-0.01,-0.03,-0.35,2.8,9.38,31
0.556052,-0.34,2.79,9.35,-0.0625,-0.25,0.125,-33.6875,30.6875,-60.5,0.0,-2.0625,-16.625,0.989258,0.144836,0.018494,0.0,0.01,-0.01,-0.02,-0.35,2.8,9.38,31
0.566955,-0.33,2.79,9.36,-0.1875,-0.25,0.125,-33.6875,30.6875,-60.5,0.0,-2.0625,-16.625,0.989258,0.144836,0.018494,0.0,0.0,-0.01,-0.02,-0.35,2.8,9.38,31
0.577858,-0.35,2.79,9.36,-0.125,-0.5,0.1875,-33.6875,30.6875,-60.5,0.0,-2.0625,-16.625,0.989258,0.144836,0.018494,0.0,-0.02,0.0,-0.04,-0.35,2.8,9.38,31
0.588761,-0.38,2.8,9.34,-0.25,-0.1875,0.3125,-33.6875,30.6875,-60.5,0.0,-2.0625,-16.625,0.989258,0.144836,0.018494,0.0,0.0,0.0,-0.06,-0.35,2.8,9.38,31
0.599664,-0.35,2.8,9.32,-0.125,-0.375,0.25,-33.6875,30.6875,-60.5,0.0,-2.0625,-16.625,0.989258,0.144836,0.018494,0.0,0.0,-0.01,0.0,-0.35,2.8,9.38,31
0.610567,-0.34,2.79,9.38,0.125,-0.125,0.3125,-32.875,30.25,-61.6875,0.0,-2.0625,-16.625,0.989258,0.144836,0.018494,0.0,0.0,0.0,-0.01,-0.35,2.8,9.38,31
0.62147,-0.35,2.8,9.37,-0.375,-0.3125,0.125,-32.875,30.25,-61.6875,0.0,-2.0625,-16.625,0.989258,0.144836,0.018494,0.0,0.0,0.0,-0.04,-0.35,2.8,9.38,31
0.632373,-0.36,2.81,9.34,-0.1875,-0.5,0.1875,-32.875,30.25,-61.6875,0.0,-2.0625,-16.625,0.989258,0.144836,0.018494,0.0,0.0,0.0,-0.03,-0.35,2.8,9.38,31
0.643276,-0.35,2.8,9.35,0.0625,-0.5,0.3125,-32.875,30.25,-61.6875,0.0,-2.0625,-16.625,0.989258,0.144836,0.018494,0.0,0.0,0.0,-0.04,-0.35,2.8,9.38,31
0.654179,-0.36,2.79,9.34,-0.3125,-0.25,0.0625,-32.875,30.25,-61.6875,0.0,-2.0625,-16.625,0.989258,0.144836,0.018494,0.0,0.0,-0.01,-0.04,-0.35,2.8,9.38,31
0.665082,-0.34,2.81,9.35,-0.375,-0.25,0.1875,-30.25,29.875,-64.25,0.0,-2.0625,-16.625,0.989258,0.144836,0.018494,0.0,0.0,0.0,-0.01,-0.35,2.8,9.38,31
0.675985,-0.36,2.81,9.37,-0.1875,-0.3125,0.25,-30.25,29.875,-64.25,0.0,-2.0625,-16.625,0.989258,0.144836,0.018494,0.0,0.0,-0.02,-0.04,-0.35,2.8,9.38,31
0.686888,-0.36,2.78,9.34,-0.125,-0.1875,0.25,-30.25,29.875,-64.25,0.0,-2.0625,-16.625,0.989258,0.144836,0.018494,0.0,0.0,0.0,-0.06,-0.35,2.8,9.38,31
0.697791,-0.35,2.8,9.32,-0.1875,-0.0625,0.1875,-30.25,29.875,-64.25,0.0,-2.0625,-16.625,0.989258,0.144836,0.018494,0.0,0.0,0.0,-0.02,-0.35,2.8,9.38,31
0.708694,-0.35,2.81,9.36,-0.25,-0.0625,0.25,-30.25,29.875,-64.25,0.0,-2.0625,-16.625,0.989258,0.144836,0.018494,0.0,0.0,0.0,-0.02,-0.35,2.8,9.38,31
0.719597,-0.35,2.78,9.36,-0.0625,-0.0625,0.125,-28.75,29.1875,-64.5625,0.0,-2.0625,-16.625,0.989258,0.144836,0.018494,0.0,0.0,0.0,-0.05,-0.35,2.8,9.38,31
0.7305,-0.35,2.8,9.33,-0.0625,-0.25,0.125,-28.75,29.1875,-64.5625,0.0,-2.0625,-16.625,0.989258,0.144836,0.018494,0.0,0.0,-0.02,-0.05,-0.35,2.8,9.38,31
0.741403,-0.36,2.81,9.34,-0.125,-0.1875,0.1875,-28.75,29.1875,-64.5625,0.0,-2.0625,-16.625,0.989258,0.144836,0.018494,0.0,0.0,0.0,-0.04,-0.35,2.8,9.38,31
0.752306,-0.36,2.78,9.35,-0.1875,-0.25,0.125,-28.75,29.1875,-64.5625,0.0,-2.0625,-16.625,0.989258,0.144836,0.018494,0.0,0.0,-0.02,-0.03,-0.35,2.8,9.38,31
0.763209,-0.36,2.8,9.34,0.125,-0.25,0.1875,-29.875,29.1875,-64.5625,0.0,-2.0625,-16.625,0.989258,0.144836,0.018494,0.0,0.0,-0.01,-0.03,-0.35,2.8,9.38,31
0.774112,-0.36,2.79,9.35,0.0625,-0.25,0.1875,-29.875,29.1875,-64.5625,0.0,-2.0625,-16.625,0.989258,0.144836,0.018494,0.0,-0.01,-0.02,-0.03,-0.35,2.8,9.38,31
0.785015,-0.37,2.78,9.35,-0.125,-0.25,0.1875,-29.875,29.1875,-64.5625,0.0,-2.0625,-16.625,0.989258,0.144836,0.018494,0.0,0.0,0.0,-0.04,-0.35,2.8,9.38,31
0.795918,-0.36,2.81,9.34,-0.1875,-0.0625,0.25,-29.875,29.1875,-64.5625,0.0,-2.0625,-16.625,0.989258,0.144836,0.018494,0.0,0.0,0.0,-0.04,-0.35,2.8,9.38,31
0.806821,-0.36,2.81,9.34,-0.125,-0.375,0.1875,-30.25,29.875,-65.875,0.0,-2.0625,-16.625,0.989258,0.144836,0.018494,0.0,0.0,-0.01,-0.01,-0.35,2.8,9.38,31
0.817724,-0.36,2.79,9.37,0.1875,-0.3125,0.1875,-30.25,29.875,-65.875,0.0,-2.0625,-16.625,0.989258,0.144836,0.018494,0.0,0.0,0.0,-0.04,-0.35,2.8,9.38,31
0.828627,-0.35,2.79,9.35,-0.0625,-0.4375,0.3125,-30.25,29.875,-65.875,0.0,-2.0625,-16.625,0.989258,0.144836,0.018494,0.0,0.0,-0.01,-0.03,-0.35,2.8,9.38,31
0.83953,-0.35,2.8,9.37,0.0625,-0.125,0.1875,-30.25,29.875,-65.875,0.0,-2.0625,-16.625,0.989258,0.144836,0.018494,0.0,0.0,0.01,0.0,-0.35,2.8,9.38,31
0.850433,-0.35,2.82,9.38,0.0625,-0.0625,0.3125,-30.25,29.875,-65.875,0.0,-2.0625,-16.625,0.989258,0.144836,0.018494,0.0,0.0,0.01,0.0,-0.35,2.8,9.38,31
0.861336,-0.34,2.8,9.36,-0.0625,-0.125,0.125,-30.6875,28.75,-65.0625,0.0,-2.0625,-16.625,0.989258,0.144836,0.018494,0.0,0.01,-0.01,-0.06,-0.35,2.8,9.38,31
0.872239,-0.34,2.79,9.32,-0.3125,-0.3125,0.1875,-30.6875,28.75,-65.0625,0.0,-2.0625,-16.625,0.989258,0.144836,0.018494,0.0,0.0,0.0,-0.05,-0.35,2.8,9.38,31
0.883142,-0.36,2.8,9.33,-0.0625,-0.1875,0.1875,-30.6875,28.75,-65.0625,0.0,-2.0625,-16.625,0.989258,0.144836,0.018494,0.0,0.0,0.0,-0.06,-0.35,2.8,9.38,31
0.894045,-0.34,2.8,9.32,-0.0625,-0.3125,0.125,-30.6875,28.75,-65.0625,0.0,-2.0625,-16.625,0.989258,0.144836,0.018494,0.0,0.01,0.0,-0.03,-0.35,2.8,9.38,31
0.904948,-0.34,2.81,9.35,-0.0625,0.0625,0.1875,-29.5625,29.5625,-64.5625,0.0,-2.0625,-16.625,0.989258,0.144836,0.018494,0.0,0.0,0.0,-0.02,-0.35,2.8,9.38,31
0.915851,-0.34,2.81,9.36,-0.0625,-0.1875,0.25,-29.5625,29.5625,-64.5625,0.0,-2.0625,-16.625,0.989258,0.144836,0.018494,0.0,0.0,0.0,-0.02,-0.35,2.8,9.38,31
0.926754,-0.35,2.82,9.33,0.0625,-0.3125,0.125,-29.5625,29.5625,-64.5625,0.0,-2.0625,-16.625,0.989258,0.144836,0.018494,0.0,0.0,0.01,-0.05,-0.35,2.8,9.38,31
0.937657,-0.34,2.78,9.37,-0.3125,-0.1875,0.3125,-29.5625,29.5625,-64.5625,0.0,-2.0625,-16.625,0.989258,0.144836,0.018494,0.0,0.0,0.0,-0.05,-0.35,2.8,9.38,31
0.94856,-0.34,2.8,9.33,-0.125,-0.25,0.3125,-29.5625,29.5625,-64.5625,0.0,-2.0625,-16.625,0.989258,0.144836,0.018494,0.0,0.0,0.0,-0.05,-0.35,2.8,9.38,31
0.959463,-0.34,2.81,9.36,0.0625,-0.125,0.1875,-30.6875,29.5625,-63.375,0.0,-2.0625,-16.625,0.989258,0.144836,0.018494,0.0,0.0,0.0,-0.05,-0.35,2.8,9.38,31
0.970366,-0.34,2.8,9.33,0.125,-0.25,0.125,-30.6875,29.5625,-63.375,0.0,-2.0625,-16.625,0.989258,0.144836,0.018494,0.0,0.0,-0.01,-0.04,-0.35,2.8,9.38,31
0.981269,-0.35,2.79,9.34,-0.1875,-0.4375,0.1875,-30.6875,29.5625,-63.375,0.0,-2.0625,-16.625,0.989258,0.144836,0.018494,0.0,0.01,-0.01,-0.05,-0.35,2.8,9.38,31
0.992172,-0.34,2.79,9.33,-0.3125,-0.1875,0.3125,-30.6875,29.5625,-63.375,0.0,-2.0625,-16.625,0.989258,0.144836,0.018494,0.0,0.0,-0.01,-0.05,-0.35,2.8,9.38,31
1.003075,-0.35,2.79,9.33,-0.1875,0.0,0.125,-32.875,29.875,-59.25,0.0,-2.0625,-16.625,0.989258,0.144836,0.018494,0.0,0.0,-0.01,-0.04,-0.35,2.8,9.38,31
1.013978,-0.36,2.79,9.34,-0.125,-0.3125,0.1875,-32.875,29.875,-59.25,0.0,-2.0625,-16.625,0.989258,0.144836,0.018494,0.0,0.0,-0.01,-0.05,-0.35,2.8,9.38,31
1.024881,-0.36,2.79,9.33,-0.25,-0.125,0.125,-32.875,29.875,-59.25,0.0,-2.0625,-16.625,0.989258,0.144836,0.018494,0.0,0.0,0.0,-0.08,-0.35,2.8,9.38,31
1.035784,-0.35,2.81,9.3,-0.1875,-0.1875,0.3125,-32.875,29.875,-59.25,0.0,-2.0625,-16.625,0.989258,0.144836,0.018494,0.0,0.0,0.0,-0.02,-0.35,2.8,9.38,31
1.046687,-0.35,2.8,9.36,-0.25,-0.3125,0.375,-32.875,29.875,-59.25,0.0,-2.0625,-16.625,0.989258,0.144836,0.018494,0.0,0.01,0.0,-0.03,-0.35,2.8,9.38,31
1.05759,-0.34,2.81,9.35,-0.0625,-0.5625,0.125,-31.375,29.875,-60.875,0.0,-2.0625,-16.625,0.989258,0.144836,0.018494,0.0,0.0,-0.03,-0.03,-0.35,2.8,9.38,31
1.068492,-0.35,2.8,9.4,-0.3125,-0.1875,0.0,-31.375,29.875,-60.875,0.0,-2.0625,-16.625,0.989258,0.144836,0.018494,0.0,0.0,0.0,0.01,-0.35,2.8,9.38,31
1.079395,-0.36,2.8,9.35,-0.0625,-0.375,0.1875,-31.375,29.875,-60.875,0.0,-2.0625,-16.625,0.989258,0.144836,0.018494,0.0,0.01,0.01,0.0,-0.35,2.8,9.38,31
1.090298,-0.34,2.82,9.38,-0.125,-0.1875,0.3125,-31.375,29.875,-60.875,0.0,-2.0625,-16.625,0.989258,0.144836,0.018494,0.0,-0.01,0.01,0.03,-0.35,2.8,9.38,31
1.101201,-0.37,2.82,9.42,0.0,-0.125,0.125,-31.375,29.875,-60.875,0.0,-2.0625,-16.625,0.989258,0.144836,0.018494,0.0,-0.01,0.01,0.03,-0.35,2.8,9.38,31
1.112104,-0.36,2.8,9.4,-0.0625,-0.125,0.1875,-31.75,29.875,-60.5,0.0,-2.0625,-16.625,0.989258,0.144836,0.018494,0.0,0.0,0.03,-0.03,-0.35,2.8,9.38,31
1.123007,-0.34,2.83,9.35,-0.1875,-0.5,0.125,-31.75,29.875,-60.5,0.0,-2.0625,-16.625,0.989258,0.144836,0.018494,0.0,0.01,-0.01,-0.01,-0.35,2.8,9.38,31
1.13391,-0.33,2.79,9.37,-0.1875,-0.4375,0.125,-31.75,29.875,-60.5,0.0,-2.0625,-16.625,0.989258,0.144836,0.018494,0.0,0.0,0.0,-0.01,-0.35,2.8,9.38,31
1.144813,-0.35,2.81,9.37,-0.0625,-0.375,0.0625,-31.75,29.875,-60.5,0.0,-2.0625,-16.625,0.989258,0.144836,0.018494,0.0,0.0,0.02,-0.01,-0.35,2.8,9.38,31
1.155716,-0.35,2.83,9.37,0.0,0.0625,0.1875,-30.25,28.375,-64.5625,0.0,-2.0625,-16.625,0.989258,0.144836,0.018494,0.0,0.0,0.02,-0.03,-0.35,2.8,9.38,31
1.166619,-0.36,2.83,9.35,-0.1875,0.0625,0.125,-30.25,28.375,-64.5625,0.0,-2.0625,-16.625,0.989258,0.144836,0.018494,0.0,0.0,0.0,-0.01,-0.35,2.8,9.38,31
1.177522,-0.35,2.81,9.37,0.0,-0.25,0.125,-30.25,28.375,-64.5625,0.0,-2.0625,-16.625,0.989258,0.144836,0.018494,0.0,0.0,0.0,-0.03,-0.35,2.8,9.38,31
1.188425,-0.36,2.81,9.35,-0.125,-0.25,0.25,-30.25,28.375,-64.5625,0.0,-2.0625,-16.625,0.989258,0.144836,0.018494,0.0,0.0,0.0,0.01,-0.35,2.8,9.38,31
1.199328,-0.35,2.81,9.4,-0.0625,-0.25,0.1875,-30.25,28.375,-64.5625,0.0,-2.0625,-16.625,0.989258,0.144836,0.018494,0.0,-0.01,0.0,-0.03,-0.35,2.8,9.38,31
1.210231,-0.37,2.81,9.35,-0.25,-0.375,0.1875,-30.25,29.5625,-64.5625,0.0,-2.0625,-16.625,0.989258,0.144836,0.018494,0.0,0.0,0.01,0.0,-0.35,2.8,9.38,31
1.221134,-0.35,2.82,9.39,-0.0625,-0.375,0.1875,-30.25,29.5625,-64.5625,0.0,-2.0625,-16.625,0.989258,0.144836,0.018494,0.0,0.0,0.0,0.02,-0.35,2.8,9.38,31
1.232037,-0.35,2.8,9.4,-0.3125,-0.375,0.0625,-30.25,29.5625,-64.5625,0.0,-2.0625,-16.625,0.989258,0.144836,0.018494,0.0,0.0,0.01,-0.02,-0.35,2.8,9.38,31
1.24294,-0.36,2.82,9.36,-0.1875,-0.3125,0.3125,-30.25,29.5625,-64.5625,0.0,-2.0625,-16.625,0.989258,0.144836,0.018494,0.0,0.0,0.01,0.0,-0.35,2.8,9.38,31
1.253843,-0.35,2.82,9.39,-0.1875,-0.25,0.125,-30.25,29.5625,-64.5625,0.0,-2.0625,-16.625,0.989258,0.144836,0.018494,0.0,-0.01,0.0,0.01,-0.35,2.8,9.38,31
1.264746,-0.37,2.81,9.4,-0.125,-0.1875,0.125,-29.5625,29.875,-64.6875,0.0,-2.0625,-16.625,0.989258,0.144836,0.018494,0.0,0.0,0.01,-0.02,-0.35,2.8,9.38,31
1.275649,-0.36,2.82,9.36,-0.25,-0.375,0.25,-29.5625,29.875,-64.6875,0.0,-2.0625,-16.625,0.989258,0.144836,0.018494,0.0,0.0,0.0,0.01,-0.35,2.8,9.38,31
1.286552,-0.35,2.82,9.35,-0.0625,-0.5,0.3125,-29.5625,29.875,-64.6875,0.0,-2.0625,-16.625,0.989258,0.144836,0.018494,0.0,0.0,0.01,-0.03,-0.35,2.8,9.38,31
1.297455,-0.35,2.81,9.4,-0.125,-0.25,0.3125,-29.5625,29.875,-64.6875,0.0,-2.0625,-16.625,0.989258,0.144836,0.018494,0.0,0.0,0.0,-0.01,-0.35,2.8,9.38,31
1.308358,-0.36,2.8,9.37,-0.0625,0.0,0.125,-29.5625,29.875,-64.6875,0.0,-2.0625,-16.625,0.989258,0.144836,0.018494,0.0,0.0,0.0,-0.01,-0.35,2.8,9.38,31
1.319261,-0.35,2.8,9.39,-0.0625,-0.4375,0.125,-31.0625,29.875,-64.25,0.0,-2.0625,-16.625,0.989258,0.144836,0.018494,0.0,0.0,0.0,0.0,-0.35,2.8,9.38,31
1.330164,-0.35,2.81,9.38,-0.0625,-0.1875,0.125,-31.0625,29.875,-64.25,0.0,-2.0625,-16.625,0.989258,0.144836,0.018494,0.0,0.0,0.0,-0.01,-0.35,2.8,9.38,31
1.341067,-0.35,2.8,9.37,-0.125,-0.3125,0.3125,-31.0625,29.875,-64.25,0.0,-2.0625,-16.625,0.989258,0.144836,0.018494,0.0,0.0,0.0,0.01,-0.35,2.8,9.38,31
1.35197,-0.36,2.8,9.4,-0.375,-0.6875,0.25,-31.0625,29.875,-64.25,0.0,-2.0625,-16.625,0.989258,0.144836,0.018433,0.0,-0.01,-0.01,-0.03,-0.35,2.8,9.38,31
1.362873,-0.36,2.79,9.35,-0.1875,-0.5625,0.1875,-29.875,29.5625,-63.375,0.0,-2.0625,-16.625,0.989258,0.144836,0.018433,0.0,0.0,0.0,-0.04,-0.35,2.8,9.38,31
1.373776,-0.36,2.82,9.38,-0.0625,-0.1875,0.0625,-29.875,29.5625,-63.375,0.0,-2.0625,-16.625,0.989258,0.144836,0.018433,0.0,0.0,0.01,0.0,-0.35,2.8,9.38,31
1.384679,-0.35,2.82,9.37,-0.125,-0.4375,0.25,-29.875,29.5625,-63.375,0.0,-2.0625,-16.625,0.989258,0.144836,0.018433,0.0,0.0,-0.01,0.0,-0.35,2.8,9.38,31
1.395582,-0.35,2.79,9.38,-0.375,-0.25,0.1875,-29.875,29.5625,-63.375,0.0,-2.0625,-16.625,0.989258,0.144836,0.018433,0.0,-0.02,0.0,0.02,-0.35,2.8,9.38,31
1.406485,-0.37,2.81,9.4,0.0625,-0.25,0.125,-29.875,29.5625,-63.375,0.0,-2.0625,-16.625,0.989258,0.144836,0.018433,0.0,-0.02,0.0,0.02,-0.35,2.8,9.38,31
1.417388,-0.35,2.8,9.39,0.0625,-0.25,0.1875,-32.1875,31.0625,-61.375,0.0,-2.0625,-16.625,0.989258,0.144836,0.018433,0.0,0.02,0.01,-0.01,-0.35,2.8,9.38,31
1.428291,-0.33,2.82,9.37,-0.0625,-0.375,0.25,-32.1875,31.0625,-61.375,0.0,-2.0625,-16.625,0.989258,0.144836,0.018433,0.0,0.0,0.0,-0.02,-0.35,2.8,9.38,31
1.439194,-0.34,2.8,9.36,-0.125,-0.5,0.25,-32.1875,31.0625,-61.375,0.0,-2.0625,-16.625,0.989258,0.144836,0.018433,0.0,0.01,0.01,0.0,-0.35,2.8,9.38,31
1.450097,-0.34,2.82,9.38,-0.125,-0.3125,0.125,-32.1875,31.0625,-61.375,0.0,-2.0625,-16.625,0.989258,0.144836,0.018433,0.0,0.0,0.0,0.0,-0.35,2.8,9.38,31
1.461,-0.35,2.81,9.39,0.0625,-0.375,0.125,-34.375,30.6875,-60.5625,0.0,-2.0625,-16.625,0.989258,0.144836,0.018433,0.0,0.0,0.01,0.01,-0.35,2.8,9.38,31
1.471903,-0.35,2.82,9.4,-0.0625,-0.375,0.25,-34.375,30.6875,-60.5625,0.0,-2.0625,-16.625,0.989258,0.144836,0.018433,0.0,0.0,0.01,0.0,-0.35,2.8,9.38,31
1.482806,-0.36,2.8,9.35,-0.1875,-0.25,0.3125,-34.375,30.6875,-60.5625,0.0,-2.0625,-16.625,0.989258,0.144836,0.018433,0.0,0.0,0.0,-0.03,-0.35,2.8,9.38,31
1.493709,-0.34,2.8,9.38,0.0625,-0.3125,0.125,-34.375,30.6875,-60.5625,0.0,-2.0625,-16.625,0.989258,0.144836,0.018433,0.0,0.0,0.0,-0.01,-0.35,2.8,9.38,31
1.504612,-0.35,2.8,9.37,-0.125,-0.3125,0.25,-34.375,30.6875,-60.5625,0.0,-2.0625,-16.625,0.989258,0.144836,0.018433,0.0,0.0,0.0,-0.01,-0.35,2.8,9.38,31
1.515515,-0.36,2.81,9.38,0.0625,0.0,0.1875,-32.875,29.875,-60.0625,0.0,-2.0625,-16.625,0.989258,0.144836,0.018433,0.0,0.01,0.0,-0.01,-0.35,2.8,9.38,31
1.526418,-0.34,2.8,9.37,-0.125,-0.125,0.25,-32.875,29.875,-60.0625,0.0,-2.0625,-16.625,0.989258,0.144836,0.018433,0.0,0.0,0.0,-0.01,-0.35,2.8,9.38,31
1.537321,-0.35,2.81,9.37,-0.125,-0.125,0.25,-32.875,29.875,-60.0625,0.0,-2.0625,-16.625,0.989258,0.144836,0.018433,0.0,0.0,0.01,0.0,-0.35,2.8,9.38,31
1.548224,-0.35,2.82,9.39,-0.0625,-0.25,0.1875,-32.875,29.875,-60.0625,0.0,-2.0625,-16.625,0.989258,0.144836,0.018433,0.0,-0.01,0.01,-0.01,-0.35,2.8,9.38,31
1.559127,-0.36,2.82,9.37,-0.1875,0.0,0.0625,-32.1875,31.0625,-59.75,0.0,-2.0625,-16.625,0.989258,0.144836,0.018433,0.0,0.01,0.0,-0.01,-0.35,2.8,9.38,31
1.57003,-0.34,2.81,9.37,-0.1875,-0.1875,0.1875,-32.1875,31.0625,-59.75,0.0,-2.0625,-16.625,0.989258,0.144836,0.018433,0.0,0.0,0.0,0.0,-0.35,2.8,9.38,31
1.580933,-0.35,2.81,9.39,-0.125,-0.0625,0.1875,-32.1875,31.0625,-59.75,0.0,-2.0625,-16.625,0.989258,0.144836,0.018433,0.0,0.0,0.0,0.01,-0.35,2.8,9.38,31
1.591836,-0.35,2.8,9.4,-0.0625,-0.25,0.1875,-32.1875,31.0625,-59.75,0.0,-2.0625,-16.625,0.989258,0.144836,0.018433,0.0,0.0,0.01,0.0,-0.35,2.8,9.38,31
1.602739,-0.35,2.82,9.39,-0.0625,-0.125,0.1875,-32.1875,31.0625,-59.75,0.0,-2.0625,-16.625,0.989258,0.144836,0.018433,0.0,0.0,0.0,0.03,-0.35,2.8,9.38,31
1.613642,-0.36,2.8,9.41,0.1875,-0.1875,0.1875,-31.75,31.375,-60.875,0.0,-2.0625,-16.625,0.989258,0.144836,0.018433,0.0,0.01,0.0,0.0,-0.35,2.8,9.38,31
1.624545,-0.33,2.81,9.38,0.1875,-0.1875,0.25,-31.75,31.375,-60.875,0.0,-2.0625,-16.625,0.989258,0.144836,0.018433,0.0,-0.01,-0.02,-0.02,-0.35,2.8,9.38,31
1.635448,-0.36,2.78,9.36,-0.25,-0.5,0.1875,-31.75,31.375,-60.875,0.0,-2.0625,-16.625,0.989258,0.144836,0.018433,0.0,0.0,0.0,-0.01,-0.35,2.8,9.38,31
1.646351,-0.36,2.8,9.37,-0.125,-0.25,0.25,-31.75,31.375,-60.875,0.0,-2.0625,-16.625,0.989258,0.144836,0.018433,0.0,0.0,0.0,0.01,-0.35,2.8,9.38,31
1.657254,-0.35,2.81,9.4,-0.125,-0.25,0.25,-31.75,31.375,-60.875,0.0,-2.0625,-16.625,0.989258,0.144836,0.018433,0.0,0.0,0.0,0.0,-0.35,2.8,9.38,31
1.668157,-0.36,2.8,9.38,-0.1875,-0.0625,0.1875,-32.1875,29.875,-60.875,0.0,-2.0625,-16.625,0.989258,0.144836,0.018433,0.0,0.0,0.01,0.0,-0.35,2.8,9.38,31
1.67906,-0.34,2.82,9.39,-0.125,-0.125,0.125,-32.1875,29.875,-60.875,0.0,-2.0625,-16.625,0.989258,0.144836,0.018433,0.0,0.0,0.01,0.0,-0.35,2.8,9.38,31
1.689963,-0.35,2.82,9.38,-0.1875,-0.25,0.125,-32.1875,29.875,-60.875,0.0,-2.0625,-16.625,0.989258,0.144836,0.018433,0.0,0.01,0.0,-0.03,-0.35,2.8,9.38,31
1.700866,-0.33,2.81,9.35,-0.0625,-0.1875,0.3125,-32.1875,29.875,-60.875,0.0,-2.0625,-16.625,0.989258,0.144836,0.018433,0.0,0.0,0.0,-0.01,-0.35,2.8,9.38,31
1.711769,-0.35,2.81,9.37,-0.125,-0.1875,0.25,-32.1875,29.875,-60.875,0.0,-2.0625,-16.625,0.989258,0.144836,0.018433,0.0,0.0,0.01,0.0,-0.35,2.8,9.38,31
1.722672,-0.34,2.82,9.39,-0.125,-0.3125,0.125,-32.5625,30.6875,-60.5625,0.0,-2.0625,-16.625,0.989258,0.144836,0.018433,0.0,0.0,0.0,0.03,-0.35,2.8,9.38,31
1.733575,-0.35,2.81,9.41,-0.25,-0.125,0.1875,-32.5625,30.6875,-60.5625,0.0,-2.0625,-16.625,0.989258,0.144836,0.018433,0.0,-0.01,0.0,0.01,-0.35,2.8,9.38,31
1.744478,-0.36,2.82,9.38,-0.125,-0.0625,0.125,-32.5625,30.6875,-60.5625,0.0,-2.0625,-16.625,0.989258,0.144836,0.018433,0.0,0.0,0.01,0.0,-0.35,2.8,9.38,31
1.755381,-0.34,2.78,9.42,-0.125,-0.375,0.25,-32.5625,30.6875,-60.5625,0.0,-2.0625,-16.625,0.989258,0.144836,0.018433,0.0,0.0,-0.02,0.03,-0.35,2.8,9.38,31
1.766284,-0.35,2.82,9.37,-0.1875,-0.375,0.0625,-32.5625,30.6875,-60.5625,0.0,-2.0625,-16.625,0.989258,0.144836,0.018433,0.0,0.0,0.01,-0.01,-0.35,2.8,9.38,31
1.777186,-0.34,2.82,9.37,-0.125,-0.3125,0.125,-31.375,29.5625,-60.5625,0.0,-2.0625,-16.625,0.989258,0.144836,0.018433,0.0,0.0,0.0,0.01,-0.35,2.8,9.38,31
1.788089,-0.36,2.81,9.4,-0.1875,-0.5625,0.25,-31.375,29.5625,-60.5625,0.0,-2.0625,-16.625,0.989258,0.144836,0.018433,0.0,0.0,0.0,-0.02,-0.35,2.8,9.38,31
1.798992,-0.35,2.8,9.36,-0.25,-0.5,0.1875,-31.375,29.5625,-60.5625,0.0,-2.0625,-16.625,0.989258,0.144836,0.018433,0.0,0.0,0.01,0.0,-0.35,2.8,9.38,31
1.809895,-0.35,2.82,9.38,-0.125,-0.1875,0.25,-31.375,29.5625,-60.5625,0.0,-2.0625,-16.625,0.989258,0.144836,0.018433,0.0,0.01,0.01,-0.01,-0.35,2.8,9.38,31
1.820798,-0.33,2.82,9.37,-0.25,-0.375,0.1875,-32.875,30.6875,-60.5625,0.0,-2.0625,-16.625,0.989258,0.144836,0.018433,0.0,0.0,0.01,-0.01,-0.35,2.8,9.38,31
1.831701,-0.35,2.82,9.37,0.0,0.0,0.125,-32.875,30.6875,-60.5625,0.0,-2.0625,-16.625,0.989258,0.144836,0.018433,0.0,0.0,0.0,0.0,-0.35,2.8,9.38,31
1.842604,-0.35,2.83,9.33,-0.125,-0.125,0.25,-32.875,30.6875,-60.5625,0.0,-2.0625,-16.625,0.989258,0.144836,0.018433,0.0,0.0,0.02,-0.05,-0.35,2.8,9.38,31
1.853507,-0.35,2.82,9.38,-0.3125,-0.1875,0.3125,-32.875,30.6875,-60.5625,0.0,-2.0625,-16.625,0.989258,0.144836,0.018433,0.0,0.0,0.0,-0.01,-0.35,2.8,9.38,31
1.86441,-0.35,2.8,9.37,0.0,-0.25,0.0625,-32.875,30.6875,-60.5625,0.0,-2.0625,-16.625,0.989258,0.144836,0.018433,0.0,0.0,0.0,-0.01,-0.35,2.8,9.38,31
1.875313,-0.34,2.8,9.37,-0.1875,-0.25,0.0625,-31.75,30.6875,-61.0,0.0,-2.0625,-16.625,0.989258,0.144836,0.018433,0.0,0.0,0.0,0.0,-0.35,2.8,9.38,31
1.886216,-0.36,2.81,9.38,0.0,-0.375,0.125,-31.75,30.6875,-61.0,0.0,-2.0625,-16.625,0.989258,0.144836,0.018433,0.0,-0.01,0.02,-0.02,-0.35,2.8,9.38,31
1.897119,-0.36,2.82,9.35,-0.1875,-0.3125,0.125,-31.75,30.6875,-61.0,0.0,-2.0625,-16.625,0.989258,0.144836,0.018433,0.0,-0.01,0.01,-0.03,-0.35,2.8,9.38,31
1.908022,-0.35,2.81,9.38,-0.1875,-0.25,0.125,-31.75,30.6875,-61.0,0.0,-2.0625,-16.625,0.989258,0.144836,0.018433,0.0,0.0,0.0,0.0,-0.35,2.8,9.38,31
1.918925,-0.37,2.81,9.4,-0.25,-0.125,0.25,-31.75,30.25,-60.1875,0.0,-2.0625,-16.625,0.989258,0.144836,0.018433,0.0,0.0,0.0,0.0,-0.35,2.8,9.38,31
1.929828,-0.34,2.8,9.38,-0.0625,0.125,0.25,-31.75,30.25,-60.1875,0.0,-2.0625,-16.625,0.989258,0.144836,0.018433,0.0,0.0,-0.02,-0.02,-0.35,2.8,9.38,31
1.940731,-0.36,2.78,9.36,0.125,-0.0625,0.125,-31.75,30.25,-60.1875,0.0,-2.0625,-16.625,0.989258,0.144836,0.018433,0.0,0.0,0.0,-0.01,-0.35,2.8,9.38,31
1.951634,-0.34,2.8,9.37,-0.1875,-0.5625,0.1875,-31.75,30.25,-60.1875,0.0,-2.0625,-16.625,0.989258,0.144836,0.018433,0.0,0.0,0.0,-0.02,-0.35,2.8,9.38,31
1.962537,-0.35,2.8,9.36,-0.25,-0.375,0.0625,-31.75,30.25,-60.1875,0.0,-2.0625,-16.625,0.989258,0.144836,0.018433,0.0,0.0,0.0,-0.02,-0.35,2.8,9.38,31
1.97344,-0.34,2.81,9.39,0.0,-0.375,0.3125,-34.0625,30.6875,-59.75,0.0,-2.0625,-16.625,0.989258,0.144836,0.018433,0.0,0.0,0.0,-0.01,-0.35,2.8,9.38,31
1.984343,-0.35,2.81,9.37,-0.125,-0.3125,0.125,-34.0625,30.6875,-59.75,0.0,-2.0625,-16.625,0.989258,0.144836,0.018433,0.0,0.0,0.0,-0.01,-0.35,2.8,9.38,31
1.995246,-0.35,2.81,9.37,-0.1875,0.0,0.1875,-34.0625,30.6875,-59.75,0.0,-2.0625,-16.625,0.989258,0.144836,0.018433,0.0,0.0,0.0,0.0,-0.35,2.8,9.38,31
2.006149,-0.34,2.8,9.39,0.0,-0.4375,0.3125,-34.0625,30.6875,-59.75,0.0,-2.0625,-16.625,0.989258,0.144836,0.018433,0.0,0.0,0.0,0.0,-0.35,2.8,9.38,31
2.017052,-0.35,2.81,9.39,-0.125,-0.625,0.1875,-32.875,31.0625,-60.1875,0.0,-2.0625,-16.625,0.989319,0.144836,0.018372,0.0,0.01,0.0,-0.02,-0.35,2.8,9.38,31
2.027955,-0.34,2.8,9.36,-0.125,-0.0625,0.125,-32.875,31.0625,-60.1875,0.0,-2.0625,-16.625,0.989319,0.144836,0.018372,0.0,-0.01,0.0,0.0,-0.35,2.8,9.38,31
2.038858,-0.34,2.8,9.36,0.0625,0.1875,0.0,-32.875,31.0625,-60.1875,0.0,-2.0625,-16.625,0.989319,0.144836,0.018372,0.0,0.0,0.0,-0.02,-0.35,2.8,9.38,31
2.049761,-0.35,2.8,9.39,-0.0625,0.125,-0.0625,-32.875,31.0625,-60.1875,0.0,-2.0625,-16.625,0.989319,0.144836,0.018372,0.0,-0.02,0.0,0.0,-0.35,2.8,9.38,31
2.060664,-0.38,2.81,9.38,0.0625,0.0,0.0,-32.875,31.0625,-60.1875,0.0,-2.0625,-16.625,0.989319,0.144836,0.018372,0.0,-0.02,0.0,0.0,-0.35,2.8,9.38,31
2.071567,-0.35,2.8,9.38,0.1875,-0.125,0.0,-34.0625,30.25,-60.5625,0.0,-2.0625,-16.625,0.989319,0.144836,0.018372,0.0,0.0,0.01,-0.01,-0.35,2.8,9.38,31
2.08247,-0.35,2.82,9.37,0.0625,0.0625,-0.0625,-34.0625,30.25,-60.5625,0.0,-2.0625,-16.625,0.989319,0.144836,0.018372,0.0,0.0,0.0,-0.02,-0.35,2.8,9.38,31
2.093373,-0.35,2.8,9.36,0.0,-0.0625,0.0,-34.0625,30.25,-60.5625,0.0,-2.0625,-16.625,0.989319,0.144836,0.018372,0.0,0.0,-0.01,-0.02,-0.35,2.8,9.38,31
2.104276,-0.34,2.79,9.36,-0.125,-0.1875,-0.0625,-34.0625,30.25,-60.5625,0.0,-2.0625,-16.625,0.989319,0.144836,0.018372,0.0,0.0,-0.01,0.01,-0.35,2.8,9.38,31
2.115179,-0.36,2.79,9.4,-0.125,-0.1875,0.25,-32.875,30.6875,-60.5625,0.0,-2.0625,-16.625,0.989319,0.144836,0.018372,0.0,0.01,0.01,-0.01,-0.35,2.8,9.38,31
2.126082,-0.33,2.82,9.37,0.1875,0.125,0.125,-32.875,30.6875,-60.5625,0.0,-2.0625,-16.625,0.989319,0.144836,0.018372,0.0,0.0,0.0,0.0,-0.35,2.8,9.38,31
2.136985,-0.35,2.81,9.38,-0.125,0.0,0.0,-32.875,30.6875,-60.5625,0.0,-2.0625,-16.625,0.989319,0.144836,0.018372,0.0,0.0,0.0,0.0,-0.35,2.8,9.38,31
2.147888,-0.36,2.83,9.39,-0.125,0.0,-0.0625,-32.875,30.6875,-60.5625,0.0,-2.0625,-16.625,0.989319,0.144836,0.018372,0.0,-0.01,0.03,0.0,-0.35,2.8,9.38,31
2.158791,-0.35,2.82,9.38,-0.1875,0.1875,0.0,-32.875,30.6875,-60.5625,0.0,-2.0625,-16.625,0.989319,0.144836,0.018372,0.0,0.0,0.01,0.0,-0.35,2.8,9.38,31
2.169694,-0.36,2.78,9.39,0.25,0.0,0.0625,-32.5625,29.875,-60.5625,0.0,-2.0625,-16.625,0.989319,0.144836,0.018372,0.0,0.0,0.0,-0.01,-0.35,2.8,9.38,31
2.180597,-0.35,2.81,9.37,0.0625,0.3125,-0.0625,-32.5625,29.875,-60.5625,0.0,-2.0625,-16.625,0.989319,0.144836,0.018372,0.0,0.0,0.0,0.01,-0.35,2.8,9.38,31
2.1915,-0.35,2.8,9.4,0.125,0.125,-0.0625,-32.5625,29.875,-60.5625,0.0,-2.0625,-16.625,0.989319,0.144836,0.018372,0.0,0.01,0.01,0.0,-0.35,2.8,9.38,31
2.202403,-0.34,2.82,9.38,0.0625,-0.125,0.0625,-32.5625,29.875,-60.5625,0.0,-2.0625,-16.625,0.989319,0.144836,0.018372,0.0,0.0,0.0,0.0,-0.35,2.8,9.38,31
2.213306,-0.35,2.81,9.38,-0.0625,-0.25,-0.0625,-32.1875,31.375,-62.6875,0.0,-2.0625,-16.625,0.989319,0.144836,0.018372,0.0,0.0,0.0,0.0,-0.35,2.8,9.38,31
2.224209,-0.34,2.8,9.39,-0.25,0.0,-0.0625,-32.1875,31.375,-62.6875,0.0,-2.0625,-16.625,0.989319,0.144836,0.018372,0.0,0.01,0.01,0.0,-0.35,2.8,9.38,31
2.235112,-0.34,2.82,9.38,0.125,0.125,-0.0625,-32.1875,31.375,-62.6875,0.0,-2.0625,-16.625,0.989319,0.144836,0.018372,0.0,0.0,0.01,-0.01,-0.35,2.8,9.38,31
2.246015,-0.36,2.82,9.37,0.1875,0.0625,-0.125,-32.1875,31.375,-62.6875,0.0,-2.0625,-16.625,0.989319,0.144836,0.018372,0.0,0.0,-0.02,0.01,-0.35,2.8,9.38,31
2.256918,-0.35,2.78,9.4,-0.125,-0.0625,0.0625,-32.1875,31.375,-62.6875,0.0,-2.0625,-16.625,0.989319,0.144836,0.018372,0.0,0.0,0.0,0.0,-0.35,2.8,9.38,31
2.267821,-0.35,2.81,9.38,-0.0625,-0.25,0.0625,-29.875,27.6875,-64.25,0.0,-2.0625,-16.625,0.989319,0.144836,0.018372,0.0,-0.02,0.01,0.0,-0.35,2.8,9.38,31
2.278724,-0.34,2.79,9.38,-0.3125,-0.3125,-0.0625,-29.875,27.6875,-64.25,0.0,-2.0625,-16.625,0.989319,0.144836,0.018372,0.0,0.0,-0.01,0.0,-0.35,2.8,9.38,31
2.289627,-0.35,2.81,9.37,-0.3125,0.0625,0.0,-29.875,27.6875,-64.25,0.0,-2.0625,-16.625,0.989319,0.144836,0.018372,0.0,0.0,0.0,0.01,-0.35,2.8,9.38,31
2.30053,-0.36,2.8,9.4,0.0625,0.0625,0.0,-29.875,27.6875,-64.25,0.0,-2.0625,-16.625,0.989319,0.144836,0.018372,0.0,0.01,0.02,0.02,-0.35,2.8,9.38,31
2.311433,-0.33,2.83,9.4,-0.0625,0.25,0.0,-29.875,27.6875,-64.25,0.0,-2.0625,-16.625,0.989319,0.144836,0.018372,0.0,0.01,0.02,0.02,-0.35,2.8,9.38,31
2.322336,-0.35,2.8,9.39,0.1875,0.0625,0.0625,-30.375,29.5625,-64.75,0.0,-2.0625,-16.625,0.989319,0.144836,0.018372,0.0,0.0,0.0,0.02,-0.35,2.8,9.38,31
2.333239,-0.35,2.8,9.41,0.125,0.125,-0.0625,-30.375,29.5625,-64.75,0.0,-2.0625,-16.625,0.989319,0.144836,0.018372,0.0,0.0,0.0,-0.01,-0.35,2.8,9.38,31
2.344142,-0.36,2.8,9.37,0.25,0.25,0.0,-30.375,29.5625,-64.75,0.0,-2.0625,-16.625,0.989319,0.144836,0.018372,0.0,0.0,0.01,0.0,-0.35,2.8,9.38,31
2.355045,-0.35,2.82,9.38,0.1875,0.1875,0.0,-30.375,29.5625,-64.75,0.0,-2.0625,-16.625,0.989319,0.144836,0.018372,0.0,0.0,0.0,0.0,-0.35,2.8,9.38,31
2.365948,-0.35,2.81,9.38,0.25,0.25,0.0,-29.5625,29.875,-63.875,0.0,-2.0625,-16.625,0.989319,0.144836,0.018372,0.0,0.0,0.02,0.01,-0.35,2.8,9.38,31
2.376851,-0.35,2.81,9.39,-0.25,0.0625,-0.0625,-29.5625,29.875,-63.875,0.0,-2.0625,-16.625,0.989319,0.144836,0.018372,0.0,0.0,0.0,0.0,-0.35,2.8,9.38,31
2.387754,-0.34,2.82,9.37,0.0625,-0.125,-0.0625,-29.5625,29.875,-63.875,0.0,-2.0625,-16.625,0.989319,0.144836,0.018372,0.0,0.0,0.02,-0.01,-0.35,2.8,9.38,31
2.398657,-0.34,2.83,9.37,-0.125,-0.125,0.0,-29.5625,29.875,-63.875,0.0,-2.0625,-16.625,0.989319,0.144836,0.018372,0.0,0.0,0.0,0.0,-0.35,2.8,9.38,31
2.40956,-0.36,2.81,9.39,0.125,-0.1875,-0.0625,-29.5625,29.875,-63.875,0.0,-2.0625,-16.625,0.989319,0.144836,0.018372,0.0,0.0,0.0,0.0,-0.35,2.8,9.38,31
2.420463,-0.35,2.8,9.4,0.125,0.3125,-0.0625,-31.75,29.875,-60.5625,0.0,-2.0625,-16.625,0.989319,0.144836,0.018372,0.0,0.0,0.0,0.0,-0.35,2.8,9.38,31
2.431366,-0.35,2.8,9.39,0.125,0.0625,-0.0625,-31.75,29.875,-60.5625,0.0,-2.0625,-16.625,0.989319,0.144836,0.018372,0.0,0.0,-0.01,-0.01,-0.35,2.8,9.38,31
2.442269,-0.36,2.79,9.37,-0.125,-0.0625,0.0625,-31.75,29.875,-60.5625,0.0,-2.0625,-16.625,0.989319,0.144836,0.018372,0.0,0.0,0.01,0.0,-0.35,2.8,9.38,31
2.453172,-0.34,2.82,9.39,0.125,0.0,-0.0625,-31.75,29.875,-60.5625,0.0,-2.0625,-16.625,0.989319,0.144836,0.018372,0.0,0.0,-0.02,0.0,-0.35,2.8,9.38,31
2.464075,-0.36,2.78,9.39,-0.125,-0.25,-0.125,-32.25,30.75,-61.0,0.0,-2.0625,-16.625,0.989319,0.144836,0.018372,0.0,0.0,0.0,-0.01,-0.35,2.8,9.38,31
2.474978,-0.34,2.8,9.4,0.125,-0.0625,0.0,-32.25,30.75,-61.0,0.0,-2.0625,-16.625,0.989319,0.144836,0.018372,0.0,0.0,0.0,0.01,-0.35,2.8,9.38,31
2.485881,-0.34,2.82,9.38,-0.125,0.0,-0.0625,-32.25,30.75,-61.0,0.0,-2.0625,-16.625,0.989319,0.144836,0.018372,0.0,0.0,0.0,-0.02,-0.35,2.8,9.38,31
2.496783,-0.36,2.81,9.36,0.125,0.1875,0.1875,-32.25,30.75,-61.0,0.0,-2.0625,-16.625,0.989319,0.144836,0.018372,0.0,0.0,0.0,0.01,-0.35,2.8,9.38,31
2.507686,-0.36,2.8,9.4,-0.125,0.125,-0.0625,-32.25,30.75,-61.0,0.0,-2.0625,-16.625,0.989319,0.144836,0.018372,0.0,0.0,0.0,0.01,-0.35,2.8,9.38,31
2.518589,-0.34,2.81,9.36,0.25,0.125,-0.125,-32.25,30.75,-61.0625,0.0,-2.0625,-16.625,0.989319,0.144836,0.018372,0.0,0.0,0.0,0.0,-0.35,2.8,9.38,31
2.529492,-0.33,2.82,9.36,0.0,0.0,-0.125,-32.25,30.75,-61.0625,0.0,-2.0625,-16.625,0.989319,0.144836,0.018372,0.0,0.02,0.01,-0.02,-0.35,2.8,9.38,31
2.540395,-0.34,2.82,9.39,0.125,0.3125,-0.0625,-32.25,30.75,-61.0625,0.0,-2.0625,-16.625,0.989319,0.144836,0.018372,0.0,0.0,0.01,0.0,-0.35,2.8,9.38,31
2.551298,-0.35,2.8,9.4,0.0,0.1875,0.0625,-32.25,30.75,-61.0625,0.0,-2.0625,-16.625,0.989319,0.144836,0.018372,0.0,0.0,0.0,0.01,-0.35,2.8,9.38,31
2.562201,-0.35,2.77,9.4,0.0625,0.125,-0.0625,-30.0,29.5625,-64.25,0.0,-2.0625,-16.625,0.989319,0.144836,0.018372,0.0,0.0,0.0,-0.03,-0.35,2.8,9.38,31
2.573104,-0.36,2.81,9.35,0.0625,0.0625,0.0,-30.0,29.5625,-64.25,0.0,-2.0625,-16.625,0.989319,0.144836,0.018372,0.0,-0.01,0.02,-0.02,-0.35,2.8,9.38,31
2.584007,-0.36,2.83,9.36,-0.125,0.1875,0.0,-30.0,29.5625,-64.25,0.0,-2.0625,-16.625,0.989319,0.144836,0.018372,0.0,0.0,-0.01,-0.01,-0.35,2.8,9.38,31
2.59491,-0.35,2.79,9.37,0.0625,0.125,-0.0625,-30.0,29.5625,-64.25,0.0,-2.0625,-16.625,0.989319,0.144836,0.018372,0.0,0.0,0.0,0.01,-0.35,2.8,9.38,31
2.605813,-0.36,2.8,9.4,0.1875,0.1875,0.125,-30.75,29.25,-65.5625,0.0,-2.0625,-16.625,0.989319,0.144836,0.018372,0.0,-0.01,0.0,0.01,-0.35,2.8,9.38,31
2.616716,-0.35,2.79,9.38,-0.0625,-0.125,0.0625,-30.75,29.25,-65.5625,0.0,-2.0625,-16.625,0.989319,0.144836,0.018372,0.0,0.0,-0.01,0.0,-0.35,2.8,9.38,31
2.627619,-0.36,2.8,9.38,0.125,0.0,0.125,-30.75,29.25,-65.5625,0.0,-2.0625,-16.625,0.989319,0.144836,0.018372,0.0,-0.02,0.0,-0.01,-0.35,2.8,9.38,31
2.638522,-0.37,2.8,9.37,0.1875,-0.0625,0.125,-30.75,29.25,-65.5625,0.0,-2.0625,-16.625,0.989319,0.144836,0.018372,0.0,0.0,-0.01,0.0,-0.35,2.8,9.38,31
2.649425,-0.35,2.79,9.38,0.1875,0.25,0.0625,-30.75,29.25,-65.5625,0.0,-2.0625,-16.625,0.989319,0.144836,0.018372,0.0,0.0,-0.01,0.0,-0.35,2.8,9.38,31
2.660328,-0.34,2.81,9.39,-0.0625,0.0625,-0.125,-32.25,30.375,-61.0625,0.0,-2.0625,-16.625,0.989319,0.144836,0.018372,0.0,0.0,0.0,0.0,-0.35,2.8,9.38,31
2.671231,-0.35,2.8,9.38,0.125,0.25,-0.0625,-32.25,30.375,-61.0625,0.0,-2.0625,-16.625,0.989319,0.144836,0.018372,0.0,0.0,0.0,0.0,-0.35,2.8,9.38,31
2.682134,-0.35,2.81,9.38,0.125,0.0,-0.0625,-32.25,30.375,-61.0625,0.0,-2.0625,-16.625,0.989319,0.144836,0.018372,0.0,0.0,0.01,0.0,-0.35,2.8,9.38,31
2.693037,-0.35,2.82,9.39,-0.0625,0.0,0.0,-32.25,30.375,-61.0625,0.0,-2.0625,-16.625,0.989319,0.144836,0.018372,0.0,0.0,0.0,0.0,-0.35,2.8,9.38,31
2.70394,-0.35,2.81,9.39,0.0,-0.1875,0.0,-33.0,30.75,-60.5625,0.0,-2.0625,-16.625,0.989319,0.144836,0.018372,0.0,-0.01,0.0,0.0,-0.35,2.8,9.38,31
2.714843,-0.36,2.81,9.38,0.25,-0.125,0.0,-33.0,30.75,-60.5625,0.0,-2.0625,-16.625,0.989319,0.144836,0.018372,0.0,0.0,0.0,-0.01,-0.35,2.8,9.38,31
2.725746,-0.36,2.81,9.37,0.0625,0.0,-0.0625,-33.0,30.75,-60.5625,0.0,-2.0625,-16.625,0.989319,0.144836,0.018372,0.0,-0.01,0.0,-0.01,-0.35,2.8,9.38,31
2.736649,-0.36,2.8,9.37,0.0625,0.0625,0.0,-33.0,30.75,-60.5625,0.0,-2.0625,-16.625,0.989319,0.144836,0.018372,0.0,0.0,0.0,-0.02,-0.35,2.8,9.38,31
2.747552,-0.35,2.8,9.36,0.1875,0.125,0.0625,-33.0,30.75,-60.5625,0.0,-2.0625,-16.625,0.989319,0.144836,0.018372,0.0,0.0,0.0,-0.01,-0.35,2.8,9.38,31
2.758455,-0.36,2.81,9.37,0.0625,0.0,0.0625,-33.75,30.0,-62.25,0.0,-2.0625,-16.625,0.989319,0.144836,0.018372,0.0,0.0,0.0,0.01,-0.35,2.8,9.38,31
2.769358,-0.35,2.81,9.4,-0.125,-0.0625,0.0625,-33.75,30.0,-62.25,0.0,-2.0625,-16.625,0.989319,0.144836,0.018372,0.0,0.0,0.0,0.0,-0.35,2.8,9.38,31
2.780261,-0.35,2.8,9.39,0.0625,0.1875,0.0625,-33.75,30.0,-62.25,0.0,-2.0625,-16.625,0.989319,0.144836,0.018372,0.0,0.0,0.01,-0.04,-0.35,2.8,9.38,31
2.791164,-0.35,2.82,9.34,-0.125,0.0625,0.0625,-33.75,30.0,-62.25,0.0,-2.0625,-16.625,0.989319,0.144836,0.018372,0.0,0.0,0.01,0.0,-0.35,2.8,9.38,31
2.802067,-0.35,2.82,9.39,-0.125,0.0,0.0,-33.75,30.0,-62.25,0.0,-2.0625,-16.625,0.989319,0.144836,0.018372,0.0,0.01,0.0,-0.02,-0.35,2.8,9.38,31
2.81297,-0.34,2.81,9.36,-0.125,-0.1875,0.0,-31.5,30.0,-59.375,0.0,-2.0625,-16.625,0.989319,0.144836,0.018372,0.0,0.0,0.0,0.0,-0.35,2.8,9.38,31
2.823873,-0.34,2.81,9.37,0.125,0.0,0.0,-31.5,30.0,-59.375,0.0,-2.0625,-16.625,0.989319,0.144836,0.018372,0.0,0.0,0.0,-0.01,-0.35,2.8,9.38,31
2.834776,-0.35,2.81,9.38,-0.125,0.1875,-0.125,-31.5,30.0,-59.375,0.0,-2.0625,-16.625,0.989319,0.144836,0.018372,0.0,0.0,0.01,0.01,-0.35,2.8,9.38,31
2.845679,-0.35,2.82,9.4,-0.125,-0.0625,0.0625,-31.5,30.0,-59.375,0.0,-2.0625,-16.625,0.989319,0.144836,0.018372,0.0,0.01,0.0,0.0,-0.35,2.8,9.38,31
2.856582,-0.34,2.8,9.39,0.125,-0.3125,0.0,-31.5,30.0,-59.375,0.0,-2.0625,-16.625,0.989319,0.144836,0.018372,0.0,0.01,0.0,0.0,-0.35,2.8,9.38,31
2.867485,-0.36,2.8,9.4,0.125,0.0,0.0,-33.375,30.375,-60.1875,0.0,-2.0625,-16.625,0.989319,0.144836,0.018372,0.0,0.0,0.0,-0.01,-0.35,2.8,9.38,31
2.878388,-0.35,2.81,9.37,0.125,0.3125,-0.0625,-33.375,30.375,-60.1875,0.0,-2.0625,-16.625,0.989319,0.144836,0.018372,0.0,0.0,0.01,0.0,-0.35,2.8,9.38,32
2.889291,-0.34,2.82,9.38,0.0,0.0,-0.0625,-33.375,30.375,-60.1875,0.0,-2.0625,-16.625,0.989319,0.144836,0.018372,0.0,-0.01,0.0,0.0,-0.35,2.8,9.38,32
2.900194,-0.36,2.8,9.39,-0.0625,0.125,0.0,-33.375,30.375,-60.1875,0.0,-2.0625,-16.625,0.989319,0.144836,0.018372,0.0,0.0,0.0,0.0,-0.35,2.8,9.38,32
2.911097,-0.34,2.8,9.39,-0.25,0.0625,-0.0625,-32.5625,29.5625,-60.5625,0.0,-2.0625,-16.625,0.989319,0.144836,0.018372,0.0,-0.01,0.0,0.01,-0.35,2.8,9.38,32
2.922,-0.36,2.8,9.4,-0.25,-0.125,-0.1875,-32.5625,29.5625,-60.5625,0.0,-2.0625,-16.625,0.989319,0.144836,0.018372,0.0,0.0,0.03,-0.01,-0.35,2.8,9.38,32
2.932903,-0.36,2.84,9.37,0.1875,0.125,0.0,-32.5625,29.5625,-60.5625,0.0,-2.0625,-16.625,0.989319,0.144836,0.018372,0.0,0.0,0.0,0.0,-0.35,2.8,9.38,32
2.943806,-0.36,2.78,9.35,-0.0625,0.125,0.0,-32.5625,29.5625,-60.5625,0.0,-2.0625,-16.625,0.989319,0.144836,0.018372,0.0,0.0,-0.02,-0.03,-0.35,2.8,9.38,32
2.954709,-0.35,2.81,9.38,0.125,0.1875,-0.125,-32.5625,29.5625,-60.5625,0.0,-2.0625,-16.625,0.989319,0.144836,0.018372,0.0,0.0,0.0,0.0,-0.35,2.8,9.38,32
2.965612,-0.34,2.82,9.39,-0.0625,0.0625,-0.0625,-33.0,31.0625,-60.25,0.0,-2.0625,-16.625,0.989319,0.144836,0.018372,0.0,-0.02,0.0,-0.01,-0.35,2.8,9.38,32
2.976515,-0.37,2.81,9.37,0.1875,-0.25,0.0625,-33.0,31.0625,-60.25,0.0,-2.0625,-16.625,0.989319,0.144836,0.018372,0.0,0.0,-0.01,-0.03,-0.35,2.8,9.38,32
2.987418,-0.35,2.79,9.35,0.25,0.25,-0.125,-33.0,31.0625,-60.25,0.0,-2.0625,-16.625,0.989319,0.144836,0.018372,0.0,0.0,0.02,0.01,-0.35,2.8,9.38,32
2.998321,-0.35,2.83,9.4,0.0,0.0625,-0.0625,-33.0,31.0625,-60.25,0.0,-2.0625,-16.625,0.989319,0.144836,0.018372,0.0,0.0,0.02,0.02,-0.35,2.8,9.38,32
3.009224,-0.34,2.83,9.4,0.0625,0.375,0.0,-33.0,31.0625,-60.25,0.0,-2.0625,-16.625,0.989319,0.144836,0.018372,0.0,0.0,0.02,0.02,-0.35,2.8,9.38,32
3.020127,-0.33,2.8,9.39,0.1875,0.1875,0.0,-33.75,31.0625,-59.375,0.0,-2.0625,-16.625,0.989319,0.144836,0.018372,0.0,0.01,-0.01,-0.01,-0.35,2.8,9.38,32
3.03103,-0.34,2.79,9.37,0.0,0.0625,-0.125,-33.75,31.0625,-59.375,0.0,-2.0625,-16.625,0.989319,0.144836,0.018372,0.0,0.0,0.0,-0.02,-0.35,2.8,9.38,32
3.041933,-0.35,2.81,9.36,-0.1875,-0.125,0.0625,-33.75,31.0625,-59.375,0.0,-2.0625,-16.625,0.989319,0.144836,0.018372,0.0,0.0,0.01,0.0,-0.35,2.8,9.38,32
3.052836,-0.34,2.82,9.39,0.0625,0.0625,0.0,-33.75,31.0625,-59.375,0.0,-2.0625,-16.625,0.989319,0.144836,0.018372,0.0,-0.01,0.0,0.0,-0.35,2.8,9.38,32
3.063739,-0.36,2.8,9.39,-0.125,-0.125,0.0,-32.5625,30.75,-59.75,0.0,-2.0625,-16.625,0.989319,0.144836,0.018372,0.0,0.0,0.01,0.0,-0.35,2.8,9.38,32
3.074642,-0.36,2.82,9.39,0.0625,0.0,0.0625,-32.5625,30.75,-59.75,0.0,-2.0625,-16.625,0.989319,0.144836,0.018372,0.0,0.0,0.0,0.0,-0.35,2.8,9.38,32
3.085545,-0.34,2.82,9.35,0.1875,0.0625,0.0,-32.5625,30.75,-59.75,0.0,-2.0625,-16.625,0.989319,0.144836,0.018372,0.0,0.0,0.01,-0.03,-0.35,2.8,9.38,32
3.096448,-0.33,2.82,9.35,0.0,0.125,-0.0625,-32.5625,30.75,-59.75,0.0,-2.0625,-16.625,0.989319,0.144836,0.018372,0.0,0.0,0.0,0.0,-0.35,2.8,9.38,32
3.107351,-0.35,2.8,9.39,0.125,0.0625,0.125,-32.5625,30.75,-59.75,0.0,-2.0625,-16.625,0.989319,0.144836,0.018372,0.0,0.0,0.0,0.0,-0.35,2.8,9.38,32
3.118254,-0.36,2.81,9.39,-0.125,-0.1875,0.0,-34.5,30.0,-59.75,0.0,-2.0625,-16.625,0.989319,0.144836,0.018372,0.0,0.0,0.0,0.0,-0.35,2.8,9.38,32
3.129157,-0.35,2.8,9.38,-0.125,-0.1875,-0.0625,-34.5,30.0,-59.75,0.0,-2.0625,-16.625,0.989319,0.144836,0.018372,0.0,0.0,-0.01,0.0,-0.35,2.8,9.38,32
3.14006,-0.34,2.79,9.39,0.0625,0.0625,-0.125,-34.5,30.0,-59.75,0.0,-2.0625,-16.625,0.989319,0.144836,0.018372,0.0,0.0,-0.03,0.0,-0.35,2.8,9.38,32
3.150963,-0.35,2.77,9.38,0.1875,0.0625,0.0625,-34.5,30.0,-59.75,0.0,-2.0625,-16.625,0.989319,0.144836,0.018372,0.0,0.01,0.0,-0.01,-0.35,2.8,9.38,32
3.161866,-0.34,2.81,9.37,0.1875,0.125,0.0625,-32.25,30.0,-64.75,0.0,-2.0625,-16.625,0.989319,0.144836,0.018372,0.0,-0.01,0.01,0.0,-0.35,2.8,9.38,32
3.172769,-0.36,2.82,9.39,0.3125,0.375,0.125,-32.25,30.0,-64.75,0.0,-2.0625,-16.625,0.989319,0.144836,0.018372,0.0,0.0,0.01,0.0,-0.35,2.8,9.38,32
3.183672,-0.35,2.82,9.38,-0.0625,-0.125,0.125,-32.25,30.0,-64.75,0.0,-2.0625,-16.625,0.989319,0.144836,0.018372,0.0,0.0,0.0,-0.01,-0.35,2.8,9.38,32
3.194575,-0.35,2.81,9.37,0.0,0.25,0.0625,-32.25,30.0,-64.75,0.0,-2.0625,-16.625,0.989319,0.144836,0.018372,0.0,-0.01,0.0,-0.02,-0.35,2.8,9.38,32
3.205477,-0.36,2.81,9.36,0.125,0.1875,-0.0625,-32.25,30.0,-64.75,0.0,-2.0625,-16.625,0.989319,0.144836,0.018372,0.0,0.0,0.0,0.0,-0.35,2.8,9.38,32
3.21638,-0.35,2.81,9.39,0.0625,0.0625,-0.0625,-32.5625,30.0,-60.25,0.0,-2.0625,-16.625,0.989319,0.144836,0.018372,0.0,0.0,0.0,0.01,-0.35,2.8,9.38,32
3.227283,-0.36,2.81,9.4,0.1875,-0.0625,0.0,-32.5625,30.0,-60.25,0.0,-2.0625,-16.625,0.989319,0.144836,0.018372,0.0,0.0,0.01,0.0,-0.35,2.8,9.38,32
3.238186,-0.35,2.82,9.38,0.0,0.25,0.0625,-32.5625,30.0,-60.25,0.0,-2.0625,-16.625,0.989319,0.144836,0.018372,0.0,-0.01,0.0,-0.05,-0.35,2.8,9.38,32
3.249089,-0.36,2.8,9.33,0.0,-0.0625,0.0,-32.5625,30.0,-60.25,0.0,-2.0625,-16.625,0.989319,0.144836,0.018372,0.0,0.0,0.0,0.0,-0.35,2.8,9.38,32
3.259992,-0.34,2.8,9.38,0.0,0.125,0.0625,-32.5625,30.0,-60.25,0.0,-2.0625,-16.625,0.989319,0.144836,0.018372,0.0,0.0,0.0,-0.02,-0.35,2.8,9.38,32
3.270895,-0.35,2.81,9.36,-0.0625,0.1875,0.0625,-33.0,29.5625,-59.75,0.0,-2.0625,-16.625,0.989319,0.144836,0.018372,0.0,0.0,0.01,-0.02,-0.35,2.8,9.38,32
3.281798,-0.36,2.82,9.36,0.125,-0.0625,0.125,-33.0,29.5625,-59.75,0.0,-2.0625,-16.625,0.989319,0.144836,0.018372,0.0,0.0,-0.01,0.0,-0.35,2.8,9.38,32
3.292701,-0.35,2.79,9.39,0.0625,-0.0625,0.0625,-33.0,29.5625,-59.75,0.0,-2.0625,-16.625,0.989319,0.144836,0.018372,0.0,0.0,0.0,-0.01,-0.35,2.8,9.38,32
3.303604,-0.36,2.8,9.37,0.125,0.0,0.0625,-33.0,29.5625,-59.75,0.0,-2.0625,-16.625,0.989319,0.144836,0.018372,0.0,0.0,0.0,0.0,-0.35,2.8,9.38,32
3.314507,-0.35,2.8,9.38,0.1875,0.4375,0.0,-33.0,29.5625,-59.75,0.0,-2.0625,-16.625,0.989319,0.144836,0.018372,0.0,0.0,0.0,0.0,-0.35,2.8,9.38,32
3.32541,-0.36,2.8,9.38,-0.1875,-0.0625,-0.0625,-32.5625,29.5625,-59.75,0.0,-2.0625,-16.625,0.989319,0.144836,0.018372,0.0,0.01,0.0,-0.01,-0.35,2.8,9.38,32
3.336313,-0.34,2.81,9.37,-0.125,0.0,-0.125,-32.5625,29.5625,-59.75,0.0,-2.0625,-16.625,0.989319,0.144836,0.018372,0.0,0.0,0.0,0.0,-0.35,2.8,9.38,32
3.347216,-0.35,2.8,9.39,0.0625,0.0,0.0,-32.5625,29.5625,-59.75,0.0,-2.0625,-16.625,0.989319,0.144836,0.018372,0.0,0.0,-0.01,-0.01,-0.35,2.8,9.38,32
3.358119,-0.35,2.8,9.38,-0.0625,-0.0625,0.0625,-32.5625,29.5625,-59.75,0.0,-2.0625,-16.625,0.989319,0.144836,0.018372,0.0,0.0,0.0,0.0,-0.35,2.8,9.38,32
3.369022,-0.35,2.8,9.38,-0.1875,0.0,-0.125,-32.5625,29.5625,-59.75,0.0,-2.0625,-16.625,0.989319,0.144836,0.018372,0.0,0.0,0.0,0.0,-0.35,2.8,9.38,32
3.379925,-0.34,2.79,9.39,0.1875,-0.125,0.0625,-32.5625,30.375,-61.875,0.0,-2.0625,-16.625,0.989319,0.144836,0.018372,0.0,0.01,0.01,-0.02,-0.35,2.8,9.38,32
3.390828,-0.34,2.82,9.36,0.0,-0.25,0.0,-32.5625,30.375,-61.875,0.0,-2.0625,-16.625,0.989319,0.144836,0.018372,0.0,0.0,-0.01,0.0,-0.35,2.8,9.38,32
3.401731,-0.36,2.79,9.39,-0.0625,0.1875,-0.125,-32.5625,30.375,-61.875,0.0,-2.0625,-16.625,0.989319,0.144836,0.018372,0.0,0.0,0.01,0.0,-0.35,2.8,9.38,32
3.412634,-0.34,2.82,9.38,0.1875,-0.0625,0.0,-32.5625,30.375,-61.875,0.0,-2.0625,-16.625,0.989319,0.144836,0.018372,0.0,0.0,0.01,-0.02,-0.35,2.8,9.38,32
3.423537,-0.34,2.82,9.36,0.1875,0.0,0.0,-32.5625,30.375,-61.875,0.0,-2.0625,-16.625,0.989319,0.144836,0.018372,0.0,0.0,0.01,-0.02,-0.35,2.8,9.38,32
3.43444,-0.35,2.81,9.39,0.0625,0.0,0.0,-30.75,28.875,-64.75,0.0,-2.0625,-16.625,0.989319,0.144836,0.018372,0.0,0.0,0.0,-0.01,-0.35,2.8,9.38,32
3.445343,-0.35,2.8,9.37,0.0625,0.1875,0.0,-30.75,28.875,-64.75,0.0,-2.0625,-16.625,0.989319,0.144836,0.018372,0.0,0.01,-0.01,-0.03,-0.35,2.8,9.38,32
3.456246,-0.34,2.79,9.35,0.0,0.1875,0.0,-30.75,28.875,-64.75,0.0,-2.0625,-16.625,0.989319,0.144836,0.018372,0.0,0.0,0.01,0.0,-0.35,2.8,9.38,32
3.467149,-0.36,2.82,9.38,-0.125,-0.0625,0.0,-30.75,28.875,-64.75,0.0,-2.0625,-16.625,0.989319,0.144836,0.018372,0.0,0.0,0.0,-0.01,-0.35,2.8,9.38,32
3.478052,-0.35,2.8,9.37,0.0,-0.0625,0.0,-31.0625,30.375,-65.1875,0.0,-2.0625,-16.625,0.989319,0.144836,0.018372,0.0,0.0,-0.02,0.0,-0.35,2.8,9.38,32
3.488955,-0.37,2.81,9.38,0.0,-0.0625,-0.0625,-31.0625,30.375,-65.1875,0.0,-2.0625,-16.625,0.989319,0.144836,0.018372,0.0,-0.02,0.0,0.0,-0.35,2.8,9.38,32
3.499858,-0.37,2.81,9.37,0.0625,-0.0625,0.0,-31.0625,30.375,-65.1875,0.0,-2.0625,-16.625,0.989319,0.144836,0.018372,0.0,0.0,0.01,0.0,-0.35,2.8,9.38,32
3.510761,-0.35,2.82,9.38,0.0,0.0,0.0625,-31.0625,30.375,-65.1875,0.0,-2.0625,-16.625,0.989319,0.144836,0.018372,0.0,0.01,0.02,0.01,-0.35,2.8,9.38,32
3.521664,-0.34,2.83,9.4,0.0,-0.0625,0.0,-31.0625,30.375,-65.1875,0.0,-2.0625,-16.625,0.989319,0.144836,0.018372,0.0,0.01,0.02,0.01,-0.35,2.8,9.38,32
3.532567,-0.35,2.8,9.38,0.1875,0.0,0.0,-29.5625,29.25,-64.75,0.0,-2.0625,-16.625,0.989319,0.144836,0.018372,0.0,-0.01,-0.01,0.0,-0.35,2.8,9.38,32
3.54347,-0.36,2.79,9.38,-0.0625,0.0,0.0,-29.5625,29.25,-64.75,0.0,-2.0625,-16.625,0.989319,0.144836,0.018372,0.0,0.0,-0.03,-0.02,-0.35,2.8,9.38,32
3.554373,-0.33,2.8,9.39,0.0,0.0,-0.0625,-29.5625,29.25,-64.75,0.0,-2.0625,-16.625,0.989319,0.144836,0.018372,0.0,0.01,0.0,0.0,-0.35,2.8,9.38,32
3.565276,-0.35,2.79,9.4,-0.125,0.0625,0.0625,-29.5625,29.25,-64.75,0.0,-2.0625,-16.625,0.989319,0.144836,0.018372,0.0,0.0,-0.01,0.01,-0.35,2.8,9.38,32
3.576179,-0.35,2.81,9.4,0.0625,0.0,-0.0625,-30.375,29.5625,-65.1875,0.0,-2.0625,-16.625,0.989319,0.144836,0.018372,0.0,-0.01,0.0,0.01,-0.35,2.8,9.38,32
3.587082,-0.37,2.81,9.4,0.1875,0.375,0.0625,-30.375,29.5625,-65.1875,0.0,-2.0625,-16.625,0.989319,0.144836,0.018372,0.0,0.0,0.01,-0.01,-0.35,2.8,9.38,32
3.597985,-0.35,2.82,9.37,0.0,-0.0625,0.125,-30.375,29.5625,-65.1875,0.0,-2.0625,-16.625,0.989319,0.144836,0.018372,0.0,0.01,0.01,0.01,-0.35,2.8,9.38,32
3.608888,-0.33,2.82,9.4,-0.1875,0.0625,-0.125,-30.375,29.5625,-65.1875,0.0,-2.0625,-16.625,0.989319,0.144836,0.018372,0.0,0.0,0.0,-0.01,-0.35,2.8,9.38,32
3.619791,-0.34,2.81,9.37,0.1875,-0.1875,0.0625,-29.5625,28.875,-66.0625,0.0,-2.0625,-16.625,0.989319,0.144836,0.018372,0.0,0.0,0.0,0.0,-0.35,2.8,9.38,32
3.630694,-0.36,2.81,9.38,0.1875,0.0625,0.0625,-29.5625,28.875,-66.0625,0.0,-2.0625,-16.625,0.989319,0.144836,0.018372,0.0,0.01,0.02,0.0,-0.35,2.8,9.38,32
3.641597,-0.34,2.83,9.39,0.0625,-0.125,0.0625,-29.5625,28.875,-66.0625,0.0,-2.0625,-16.625,0.989319,0.144836,0.018372,0.0,0.0,0.0,0.0,-0.35,2.8,9.38,32
3.6525,-0.36,2.8,9.39,0.125,0.1875,0.125,-29.5625,28.875,-66.0625,0.0,-2.0625,-16.625,0.989319,0.144836,0.018372,0.0,0.0,0.01,0.0,-0.35,2.8,9.38,32
3.663403,-0.34,2.82,9.38,0.0625,0.0625,0.0,-29.5625,28.875,-66.0625,0.0,-2.0625,-16.625,0.989319,0.144836,0.018372,0.0,0.0,0.01,0.02,-0.35,2.8,9.38,32
3.674306,-0.34,2.82,9.4,0.0625,0.125,0.0,-30.0,30.0,-62.25,0.0,-2.0625,-16.625,0.989319,0.144836,0.018372,0.0,0.0,0.0,-0.01,-0.35,2.8,9.38,32
3.685209,-0.34,2.81,9.37,0.0,0.0,0.0,-30.0,30.0,-62.25,0.0,-2.0625,-16.625,0.989319,0.144836,0.018372,0.0,0.0,0.0,-0.01,-0.35,2.8,9.38,32
3.696112,-0.35,2.8,9.37,0.0625,0.0,-0.125,-30.0,30.0,-62.25,0.0,-2.0625,-16.625,0.989319,0.144836,0.018372,0.0,0.0,0.0,0.0,-0.35,2.8,9.38,32
3.707015,-0.35,2.81,9.38,0.125,0.1875,0.0,-30.0,30.0,-62.25,0.0,-2.0625,-16.625,0.989319,0.144836,0.018372,0.0,0.0,0.01,-0.01,-0.35,2.8,9.38,32
3.717918,-0.35,2.82,9.37,0.3125,0.1875,-0.125,-30.0,30.0,-62.25,0.0,-2.0625,-16.625,0.989319,0.144836,0.018372,0.0,0.0,0.0,0.0,-0.35,2.8,9.38,32
3.728821,-0.35,2.8,9.39,0.0625,-0.125,-0.0625,-32.25,30.0,-59.375,0.0,-2.0625,-16.625,0.989319,0.144836,0.018372,0.0,0.0,0.0,0.0,-0.35,2.8,9.38,32
3.739724,-0.36,2.8,9.39,0.0625,0.0,0.0,-32.25,30.0,-59.375,0.0,-2.0625,-16.625,0.989319,0.144836,0.018372,0.0,0.0,-0.01,0.0,-0.35,2.8,9.38,32
3.750627,-0.35,2.79,9.39,-0.0625,0.0,-0.0625,-32.25,30.0,-59.375,0.0,-2.0625,-16.625,0.989319,0.144836,0.018372,0.0,0.0,0.0,-0.02,-0.35,2.8,9.38,32
3.76153,-0.35,2.81,9.4,0.0,0.125,-0.0625,-32.25,30.0,-59.375,0.0,-2.0625,-16.625,0.989319,0.144836,0.018372,0.0,0.0,0.0,0.01,-0.35,2.8,9.38,32
3.772433,-0.33,2.81,9.38,0.125,-0.1875,0.125,-32.25,30.0,-59.375,0.0,-2.0625,-16.625,0.989319,0.144836,0.018372,0.0,0.01,0.0,0.0,-0.35,2.8,9.38,32
3.783336,-0.35,2.82,9.36,0.25,0.0625,0.0,-31.875,30.375,-61.5,0.0,-2.0625,-16.625,0.989319,0.144836,0.018372,0.0,0.0,0.0,0.0,-0.35,2.8,9.38,32
3.794239,-0.35,2.8,9.39,-0.0625,-0.1875,0.0,-31.875,30.375,-61.5,0.0,-2.0625,-16.625,0.989319,0.144836,0.018372,0.0,-0.01,0.02,-0.03,-0.35,2.8,9.38,32
3.805142,-0.36,2.83,9.35,0.125,-0.0625,0.0625,-31.875,30.375,-61.5,0.0,-2.0625,-16.625,0.989319,0.144836,0.018372,0.0,-0.01,0.0,-0.02,-0.35,2.8,9.38,32
3.816045,-0.36,2.81,9.36,0.0625,-0.0625,0.0,-31.875,30.375,-61.5,0.0,-2.0625,-16.625,0.989319,0.144836,0.018372,0.0,0.0,0.0,0.0,-0.35,2.8,9.38,32
3.826948,-0.35,2.81,9.38,0.1875,-0.0625,-0.0625,-31.875,30.375,-61.5,0.0,-2.0625,-16.625,0.989319,0.144836,0.018372,0.0,0.0,0.0,0.0,-0.35,2.8,9.38,32
3.837851,-0.36,2.82,9.4,-0.0625,0.125,0.0,-34.875,30.75,-59.875,0.0,-2.0625,-16.625,0.989319,0.144836,0.018372,0.0,0.0,0.01,0.0,-0.35,2.8,9.38,32
3.848754,-0.35,2.82,9.38,0.0625,0.0,0.0,-34.875,30.75,-59.875,0.0,-2.0625,-16.625,0.989319,0.144836,0.018372,0.0,0.0,0.0,-0.01,-0.35,2.8,9.38,32
3.859657,-0.35,2.81,9.37,0.25,-0.125,0.0,-34.875,30.75,-59.875,0.0,-2.0625,-16.625,0.989319,0.144836,0.018372,0.0,0.0,0.0,0.0,-0.35,2.8,9.38,32
3.87056,-0.36,2.81,9.39,0.0625,0.1875,0.0,-34.875,30.75,-59.875,0.0,-2.0625,-16.625,0.989319,0.144836,0.018372,0.0,0.0,0.01,0.0,-0.35,2.8,9.38,32
3.881463,-0.34,2.82,9.38,0.125,0.0,0.0625,-33.0,30.0,-61.5,0.0,-2.0625,-16.625,0.989319,0.144836,0.018372,0.0,0.01,0.0,0.02,-0.35,2.8,9.38,32
3.892366,-0.34,2.8,9.4,0.0,-0.125,-0.1875,-33.0,30.0,-61.5,0.0,-2.0625,-16.625,0.989319,0.144836,0.018372,0.0,0.0,-0.01,0.0,-0.35,2.8,9.38,32
3.903269,-0.36,2.81,9.36,-0.0625,-0.0625,0.0,-33.0,30.0,-61.5,0.0,-2.0625,-16.625,0.989319,0.144836,0.018372,0.0,-0.01,0.0,-0.02,-0.35,2.8,9.38,32
3.914171,-0.36,2.81,9.4,0.0,0.125,0.0,-33.0,30.0,-61.5,0.0,-2.0625,-16.625,0.989319,0.144836,0.018372,0.0,0.0,0.0,0.0,-0.35,2.8,9.38,32
3.925074,-0.36,2.8,9.39,0.3125,-0.125,0.0625,-33.0,30.0,-61.5,0.0,-2.0625,-16.625,0.989319,0.144836,0.018372,0.0,0.0,0.0,0.0,-0.35,2.8,9.38,32
3.935977,-0.34,2.81,9.39,0.0625,0.0,-0.0625,-32.5625,31.0625,-59.75,0.0,-2.0625,-16.625,0.989319,0.144836,0.018372,0.0,0.0,0.01,0.01,-0.35,2.8,9.38,32
3.94688,-0.35,2.82,9.4,0.0625,0.0625,0.0,-32.5625,31.0625,-59.75,0.0,-2.0625,-16.625,0.989319,0.144836,0.018372,0.0,0.0,0.0,-0.03,-0.35,2.8,9.38,32
3.957783,-0.35,2.81,9.35,0.0,0.1875,0.0,-32.5625,31.0625,-59.75,0.0,-2.0625,-16.625,0.989319,0.144836,0.018372,0.0,0.01,-0.01,0.0,-0.35,2.8,9.38,32
3.968686,-0.34,2.79,9.39,0.0,0.125,-0.0625,-32.5625,31.0625,-59.75,0.0,-2.0625,-16.625,0.989319,0.144836,0.018372,0.0,0.0,0.01,0.0,-0.35,2.8,9.38,32
3.979589,-0.35,2.82,9.39,-0.0625,0.375,0.0625,-33.0,30.375,-59.75,0.0,-2.0625,-16.625,0.989319,0.144836,0.018372,0.0,0.0,0.0,0.0,-0.35,2.8,9.38,32
3.990492,-0.35,2.81,9.38,-0.125,0.125,-0.125,-33.0,30.375,-59.75,0.0,-2.0625,-16.625,0.989319,0.144836,0.018372,0.0,0.0,0.0,0.0,-0.35,2.8,9.38,32
4.001395,-0.35,2.8,9.39,0.125,0.0,-0.1875,-33.0,30.375,-59.75,0.0,-2.0625,-16.625,0.989319,0.144836,0.018372,0.0,0.0,0.0,0.02,-0.35,2.8,9.38,32
4.012298,-0.36,2.81,9.4,0.0,-0.25,0.0,-33.0,30.375,-59.75,0.0,-2.0625,-16.625,0.989319,0.144836,0.018372,0.0,0.0,0.0,-0.02,-0.35,2.8,9.38,32
4.023201,-0.35,2.81,9.36,-0.125,-0.25,0.0,-33.0,30.375,-59.75,0.0,-2.0625,-16.625,0.989319,0.144836,0.018372,0.0,0.0,0.0,0.0,-0.35,2.8,9.38,32
4.034104,-0.34,2.81,9.38,-0.0625,0.0,0.0625,-31.875,31.0625,-59.0,0.0,-2.0625,-16.625,0.989319,0.144836,0.018372,0.0,0.0,0.0,0.03,-0.35,2.8,9.38,32
4.045007,-0.35,2.8,9.41,0.0,-0.0625,0.0,-31.875,31.0625,-59.0,0.0,-2.0625,-16.625,0.989319,0.144836,0.018372,0.0,0.0,0.0,0.0,-0.35,2.8,9.38,32
4.05591,-0.34,2.81,9.39,0.0,0.1875,0.0,-31.875,31.0625,-59.0,0.0,-2.0625,-16.625,0.989319,0.144836,0.018372,0.0,0.0,0.0,-0.01,-0.35,2.8,9.38,32
4.066813,-0.36,2.8,9.37,0.0625,0.25,0.0625,-31.875,31.0625,-59.0,0.0,-2.0625,-16.625,0.989319,0.144836,0.018372,0.0,0.0,0.01,0.0,-0.35,2.8,9.38,32
4.077716,-0.35,2.82,9.39,0.125,0.0625,0.0,-31.875,31.0625,-59.0,0.0,-2.0625,-16.625,0.989319,0.144836,0.018372,0.0,0.0,-0.01,0.0,-0.35,2.8,9.38,32
4.088619,-0.36,2.79,9.39,0.0625,0.0625,-0.0625,-32.5625,30.375,-60.6875,0.0,-2.0625,-16.625,0.989319,0.144836,0.018372,0.0,-0.01,0.0,0.0,-0.35,2.8,9.38,32
4.099522,-0.37,2.81,9.39,0.3125,0.125,0.0,-32.5625,30.375,-60.6875,0.0,-2.0625,-16.625,0.989319,0.144836,0.018372,0.0,-0.01,0.0,0.01,-0.35,2.8,9.38,32
4.110425,-0.36,2.81,9.4,0.0,0.0625,0.0625,-32.5625,30.375,-60.6875,0.0,-2.0625,-16.625,0.989319,0.144836,0.018372,0.0,0.0,0.0,-0.03,-0.35,2.8,9.38,32
4.121328,-0.35,2.81,9.35,0.3125,0.25,-0.0625,-32.5625,30.375,-60.6875,0.0,-2.0625,-16.625,0.989319,0.144836,0.018372,0.0,0.0,0.0,-0.02,-0.35,2.8,9.38,32
4.132231,-0.34,2.8,9.36,0.125,0.125,-0.0625,-32.5625,30.375,-60.6875,0.0,-2.0625,-16.625,0.989319,0.144836,0.018372,0.0,-0.01,0.0,0.01,-0.35,2.8,9.38,32
4.143134,-0.37,2.81,9.4,0.125,0.0625,-0.125,-32.25,31.0625,-60.25,0.0,-2.0625,-16.625,0.989319,0.144836,0.018372,0.0,0.0,0.0,0.01,-0.35,2.8,9.38,32
4.154037,-0.35,2.81,9.4,-0.0625,0.0625,-0.125,-32.25,31.0625,-60.25,0.0,-2.0625,-16.625,0.989319,0.144836,0.018372,0.0,0.0,0.0,0.0,-0.35,2.8,9.38,32
4.16494,-0.35,2.8,9.39,0.125,-0.3125,-0.0625,-32.25,31.0625,-60.25,0.0,-2.0625,-16.625,0.989319,0.144836,0.018372,0.0,0.0,0.0,0.0,-0.35,2.8,9.38,32
4.175843,-0.34,2.81,9.38,0.3125,-0.0625,0.0625,-32.25,31.0625,-60.25,0.0,-2.0625,-16.625,0.989319,0.144836,0.018372,0.0,0.0,0.0,0.0,-0.35,2.8,9.38,32
4.186746,-0.36,2.8,9.4,-0.0625,0.125,-0.0625,-32.25,31.0625,-60.25,0.0,-2.0625,-16.625,0.989319,0.144836,0.018372,0.0,-0.01,0.0,0.01,-0.35,2.8,9.38,32
4.197649,-0.36,2.8,9.37,0.0625,-0.0625,0.0,-33.375,30.0,-60.6875,0.0,-2.0625,-16.625,0.989319,0.144836,0.018372,0.0,-0.01,0.0,-0.01,-0.35,2.8,9.38,32
4.208552,-0.33,2.83,9.37,0.125,0.0625,0.0,-33.375,30.0,-60.6875,0.0,-2.0625,-16.625,0.989319,0.144836,0.018372,0.0,0.0,0.01,-0.01,-0.35,2.8,9.38,32
4.219455,-0.36,2.82,9.37,0.0625,0.0,0.0625,-33.375,30.0,-60.6875,0.0,-2.0625,-16.625,0.989319,0.144836,0.018372,0.0,0.0,0.0,-0.01,-0.35,2.8,9.38,32
4.230358,-0.35,2.81,9.37,0.0625,0.125,0.0,-33.375,30.0,-60.6875,0.0,-2.0625,-16.625,0.989319,0.144836,0.018372,0.0,0.0,0.0,-0.01,-0.35,2.8,9.38,32
4.241261,-0.36,2.8,9.37,0.0,-0.125,0.0,-33.375,30.0,-60.6875,0.0,-2.0625,-16.625,0.989319,0.144836,0.018372,0.0,0.0,0.0,-0.01,-0.35,2.8,9.38,32
4.252164,-0.35,2.78,9.4,0.1875,0.3125,0.0,-33.75,31.875,-60.25,0.0,-2.0625,-16.625,0.989319,0.144836,0.018372,0.0,0.0,0.0,0.0,-0.35,2.8,9.38,32
4.263067,-0.36,2.81,9.39,0.375,0.1875,-0.0625,-33.75,31.875,-60.25,0.0,-2.0625,-16.625,0.989319,0.144836,0.018372,0.0,0.0,0.0,0.0,-0.35,2.8,9.38,32
4.27397,-0.34,2.8,9.38,0.125,0.0,-0.0625,-33.75,31.875,-60.25,0.0,-2.0625,-16.625,0.989319,0.144836,0.018372,0.0,0.0,0.0,0.0,-0.35,2.8,9.38,32
4.284873,-0.35,2.8,9.38,-0.3125,-0.1875,-0.0625,-33.75,31.875,-60.25,0.0,-2.0625,-16.625,0.989319,0.144836,0.018372,0.0,0.01,0.01,0.0,-0.35,2.8,9.38,32
4.295776,-0.34,2.82,9.39,0.125,0.0,0.0625,-34.0625,30.375,-60.6875,0.0,-2.0625,-16.625,0.989319,0.144836,0.018372,0.0,0.0,0.0,0.0,-0.35,2.8,9.38,32
4.306679,-0.35,2.8,9.39,0.0625,0.0,0.0,-34.0625,30.375,-60.6875,0.0,-2.0625,-16.625,0.989319,0.144836,0.018372,0.0,0.0,0.0,0.0,-0.35,2.8,9.38,32
4.317582,-0.34,2.81,9.37,0.125,-0.0625,0.0625,-34.0625,30.375,-60.6875,0.0,-2.0625,-16.625,0.989319,0.144836,0.018372,0.0,0.0,0.01,0.0,-0.35,2.8,9.38,32
4.328485,-0.36,2.82,9.38,0.1875,-0.1875,0.0625,-34.0625,30.375,-60.6875,0.0,-2.0625,-16.625,0.989319,0.144836,0.018372,0.0,0.0,-0.01,0.01,-0.35,2.8,9.38,32
4.339388,-0.34,2.79,9.4,0.125,-0.0625,0.0,-34.0625,30.375,-60.6875,0.0,-2.0625,-16.625,0.989319,0.144836,0.018372,0.0,0.0,-0.01,0.01,-0.35,2.8,9.38,32
4.350291,-0.34,2.8,9.37,-0.1875,-0.375,0.0,-31.0625,30.0,-59.875,0.0,-2.0625,-16.625,0.989319,0.144836,0.018372,0.0,0.0,0.0,-0.01,-0.35,2.8,9.38,32
4.361194,-0.35,2.81,9.37,-0.125,-0.125,0.125,-31.0625,30.0,-59.875,0.0,-2.0625,-16.625,0.989319,0.144836,0.018372,0.0,0.0,0.01,0.0,-0.35,2.8,9.38,32
4.372097,-0.34,2.82,9.38,-0.0625,0.125,0.125,-31.0625,30.0,-59.875,0.0,-2.0625,-16.625,0.989319,0.144836,0.018372,0.0,0.0,0.0,-0.01,-0.35,2.8,9.38,32
4.383,-0.34,2.8,9.37,0.0,0.125,0.0625,-31.0625,30.0,-59.875,0.0,-2.0625,-16.625,0.989319,0.144836,0.018372,0.0,-0.01,0.0,0.0,-0.35,2.8,9.38,32
4.393903,-0.37,2.8,9.38,-0.125,0.125,0.0,-30.375,29.25,-63.0625,0.0,-2.0625,-16.625,0.989319,0.144836,0.018372,0.0,0.0,0.0,0.0,-0.35,2.8,9.38,32
4.404806,-0.36,2.81,9.39,-0.1875,-0.25,-0.0625,-30.375,29.25,-63.0625,0.0,-2.0625,-16.625,0.989319,0.144836,0.018372,0.0,0.0,0.0,0.0,-0.35,2.8,9.38,32
4.415709,-0.35,2.8,9.39,0.0,0.0,-0.0625,-30.375,29.25,-63.0625,0.0,-2.0625,-16.625,0.989319,0.144836,0.018372,0.0,0.0,-0.01,-0.02,-0.35,2.8,9.38,32
4.426612,-0.35,2.79,9.36,-0.0625,-0.0625,0.125,-30.375,29.25,-63.0625,0.0,-2.0625,-16.625,0.989319,0.144836,0.018372,0.0,-0.01,-0.01,0.0,-0.35,2.8,9.38,32
4.437515,-0.36,2.79,9.39,0.125,-0.0625,0.0625,-30.375,29.25,-63.0625,0.0,-2.0625,-16.625,0.989319,0.144836,0.018372,0.0,0.0,-0.01,0.01,-0.35,2.8,9.38,32
4.448418,-0.35,2.79,9.4,0.1875,0.375,0.0,-31.5,30.375,-60.6875,0.0,-2.0625,-16.625,0.989319,0.144836,0.018372,0.0,0.0,0.0,0.0,-0.35,2.8,9.38,32
4.459321,-0.35,2.81,9.39,0.125,0.125,-0.0625,-31.5,30.375,-60.6875,0.0,-2.0625,-16.625,0.989319,0.144836,0.018372,0.0,0.01,0.0,0.0,-0.35,2.8,9.38,32
4.470224,-0.33,2.8,9.39,0.25,-0.0625,-0.0625,-31.5,30.375,-60.6875,0.0,-2.0625,-16.625,0.989319,0.144836,0.018372,0.0,0.0,0.01,-0.04,-0.35,2.8,9.38,32
4.481127,-0.34,2.82,9.34,-0.125,0.0,0.0625,-31.5,30.375,-60.6875,0.0,-2.0625,-16.625,0.989319,0.144836,0.018372,0.0,0.0,0.0,0.0,-0.35,2.8,9.38,32
4.49203,-0.35,2.8,9.39,-0.0625,0.125,0.125,-31.5,30.375,-60.6875,0.0,-2.0625,-16.625,0.989319,0.144836,0.018372,0.0,0.0,-0.01,0.01,-0.35,2.8,9.38,32
4.502933,-0.34,2.79,9.4,-0.25,-0.1875,0.125,-31.875,29.5625,-60.25,0.0,-2.0625,-16.625,0.989319,0.144836,0.018372,0.0,0.0,0.0,-0.02,-0.35,2.8,9.38,32
4.513836,-0.36,2.79,9.38,-0.1875,0.0625,-0.0625,-31.875,29.5625,-60.25,0.0,-2.0625,-16.625,0.989319,0.144836,0.018372,0.0,-0.01,-0.01,0.0,-0.35,2.8,9.38,32
4.524739,-0.35,2.8,9.35,-0.25,-0.125,0.0625,-31.875,29.5625,-60.25,0.0,-2.0625,-16.625,0.989319,0.144836,0.018372,0.0,0.0,0.0,-0.02,-0.35,2.8,9.38,32
4.535642,-0.35,2.8,9.36,-0.1875,-0.1875,0.0,-31.875,29.5625,-60.25,0.0,-2.0625,-16.625,0.989319,0.144836,0.018372,0.0,0.01,-0.01,0.03,-0.35,2.8,9.38,32
4.546545,-0.33,2.79,9.41,-0.0625,0.0,0.0,-31.875,29.5625,-60.25,0.0,-2.0625,-16.625,0.989319,0.144836,0.018372,0.0,0.01,-0.01,0.03,-0.35,2.8,9.38,32
4.557448,-0.35,2.81,9.4,-0.3125,-0.0625,0.0,-32.25,30.375,-60.25,0.0,-2.0625,-16.625,0.989319,0.144836,0.018372,0.0,0.01,-0.01,0.0,-0.35,2.8,9.38,32
4.568351,-0.34,2.79,9.39,-0.1875,0.0,-0.0625,-32.25,30.375,-60.25,0.0,-2.0625,-16.625,0.989319,0.144836,0.018372,0.0,0.0,0.01,0.0,-0.35,2.8,9.38,32
4.579254,-0.36,2.82,9.38,0.0,0.0,0.0625,-32.25,30.375,-60.25,0.0,-2.0625,-16.625,0.989319,0.144836,0.018372,0.0,0.0,0.0,-0.02,-0.35,2.8,9.38,32
4.590157,-0.35,2.82,9.38,0.125,-0.25,0.125,-32.25,30.375,-60.25,0.0,-2.0625,-16.625,0.989319,0.144836,0.018372,0.0,0.0,0.01,0.0,-0.35,2.8,9.38,32
4.60106,-0.35,2.8,9.39,-0.125,0.0625,-0.1875,-33.75,30.0,-60.6875,0.0,-2.0625,-16.625,0.989319,0.144836,0.018372,0.0,0.0,0.0,0.0,-0.35,2.8,9.38,32
4.611963,-0.35,2.81,9.37,-0.0625,0.0625,0.1875,-33.75,30.0,-60.6875,0.0,-2.0625,-16.625,0.989319,0.144836,0.018372,0.0,0.0,0.0,-0.02,-0.35,2.8,9.38,32
4.622865,-0.35,2.81,9.36,0.0,0.0625,0.1875,-33.75,30.0,-60.6875,0.0,-2.0625,-16.625,0.989319,0.144836,0.018372,0.0,0.0,0.0,0.0,-0.35,2.8,9.38,32
4.633768,-0.35,2.81,9.39,-0.125,0.125,0.0625,-33.75,30.0,-60.6875,0.0,-2.0625,-16.625,0.989319,0.144836,0.018372,0.0,0.0,0.0,0.0,-0.35,2.8,9.38,32
4.644671,-0.34,2.81,9.38,-0.1875,0.125,0.0,-33.75,30.0,-60.6875,0.0,-2.0625,-16.625,0.989319,0.144836,0.018372,0.0,0.0,0.0,0.0,-0.35,2.8,9.38,32
4.655574,-0.34,2.83,9.4,0.0,0.0,-0.0625,-28.875,29.25,-64.75,0.0,-2.0625,-16.625,0.989319,0.144836,0.018372,0.0,0.0,0.0,0.0,-0.35,2.8,9.38,32
4.666477,-0.35,2.81,9.39,-0.25,-0.0625,-0.0625,-28.875,29.25,-64.75,0.0,-2.0625,-16.625,0.989319,0.144836,0.018372,0.0,0.0,0.0,-0.01,-0.35,2.8,9.38,32
4.67738,-0.35,2.8,9.37,-0.125,-0.125,-0.125,-28.875,29.25,-64.75,0.0,-2.0625,-16.625,0.989319,0.144836,0.018372,0.0,0.0,0.01,0.0,-0.35,2.8,9.38,32
4.688283,-0.34,2.82,9.39,0.0625,0.125,0.0,-28.875,29.25,-64.75,0.0,-2.0625,-16.625,0.989319,0.144836,0.018372,0.0,-0.01,0.0,0.0,-0.35,2.8,9.38,32
4.699186,-0.36,2.81,9.38,-0.0625,0.125,0.0,-30.75,30.0,-63.5625,0.0,-2.0625,-16.625,0.989319,0.144836,0.018372,0.0,0.0,-0.01,-0.02,-0.35,2.8,9.38,32
4.710089,-0.35,2.79,9.36,-0.1875,-0.0625,0.125,-30.75,30.0,-63.5625,0.0,-2.0625,-16.625,0.989319,0.144836,0.018372,0.0,0.01,0.0,0.01,-0.35,2.8,9.38,32
4.720992,-0.34,2.81,9.4,-0.125,-0.125,-0.0625,-30.75,30.0,-63.5625,0.0,-2.0625,-16.625,0.989319,0.144836,0.018372,0.0,0.0,0.0,-0.01,-0.35,2.8,9.38,32
4.731895,-0.36,2.81,9.37,-0.125,0.0,0.0625,-30.75,30.0,-63.5625,0.0,-2.0625,-16.625,0.989319,0.144836,0.018372,0.0,-0.01,0.0,0.0,-0.35,2.8,9.38,32
4.742798,-0.36,2.8,9.38,-0.0625,0.0625,-0.0625,-30.75,30.0,-63.5625,0.0,-2.0625,-16.625,0.989319,0.144836,0.018372,0.0,0.0,0.0,-0.01,-0.35,2.8,9.38,32
4.753701,-0.34,2.81,9.37,0.1875,0.25,-0.0625,-28.5,29.25,-64.75,0.0,-2.0625,-16.625,0.989319,0.144836,0.018372,0.0,0.0,0.0,0.0,-0.35,2.8,9.38,32
4.764604,-0.34,2.83,9.38,-0.25,0.1875,0.0,-28.5,29.25,-64.75,0.0,-2.0625,-16.625,0.989319,0.144836,0.018372,0.0,0.0,0.02,0.0,-0.35,2.8,9.38,32
4.775507,-0.36,2.81,9.35,0.125,0.0625,0.0625,-28.5,29.25,-64.75,0.0,-2.0625,-16.625,0.989319,0.144836,0.018372,0.0,-0.01,0.01,0.0,-0.35,2.8,9.38,32
4.78641,-0.37,2.82,9.38,-0.1875,0.1875,-0.0625,-28.5,29.25,-64.75,0.0,-2.0625,-16.625,0.989319,0.144836,0.018372,0.0,0.0,0.0,0.0,-0.35,2.8,9.38,32
4.797313,-0.34,2.8,9.38,0.125,0.1875,0.0,-28.5,29.25,-64.75,0.0,-2.0625,-16.625,0.989319,0.144836,0.018372,0.0,0.0,0.0,0.0,-0.35,2.8,9.38,32
4.808216,-0.34,2.82,9.41,-0.125,-0.125,-0.0625,-28.0625,28.5,-65.25,0.0,-2.0625,-16.625,0.989319,0.144836,0.018372,0.0,0.0,0.0,0.01,-0.35,2.8,9.38,32
4.819119,-0.35,2.81,9.4,0.1875,-0.125,0.125,-28.0625,28.5,-65.25,0.0,-2.0625,-16.625,0.989319,0.144836,0.018372,0.0,0.0,-0.01,0.0,-0.35,2.8,9.38,32
4.830022,-0.36,2.79,9.39,-0.1875,-0.125,-0.0625,-28.0625,28.5,-65.25,0.0,-2.0625,-16.625,0.989319,0.144836,0.018372,0.0,0.0,0.0,0.01,-0.35,2.8,9.38,32
4.840925,-0.35,2.8,9.4,-0.125,0.3125,0.0,-28.0625,28.5,-65.25,0.0,-2.0625,-16.625,0.989319,0.144836,0.018372,0.0,0.0,-0.02,0.0,-0.35,2.8,9.38,32
4.851828,-0.35,2.78,9.38,-0.0625,0.0625,0.125,-30.375,29.5625,-64.375,0.0,-2.0625,-16.625,0.989319,0.144836,0.018372,0.0,0.01,-0.01,0.0,-0.35,2.8,9.38,32
4.862731,-0.34,2.79,9.39,-0.125,-0.0625,0.0,-30.375,29.5625,-64.375,0.0,-2.0625,-16.625,0.989319,0.144836,0.018372,0.0,0.0,0.0,-0.03,-0.35,2.8,9.38,32
4.873634,-0.34,2.8,9.35,0.0625,0.0,0.0,-30.375,29.5625,-64.375,0.0,-2.0625,-16.625,0.989319,0.144836,0.018372,0.0,-0.02,0.0,-0.01,-0.35,2.8,9.38,32
4.884537,-0.37,2.8,9.37,-0.25,0.0,0.125,-30.375,29.5625,-64.375,0.0,-2.0625,-16.625,0.989319,0.144836,0.018372,0.0,0.0,0.0,0.0,-0.35,2.8,9.38,32
4.89544,-0.36,2.81,9.38,-0.25,-0.1875,0.125,-30.375,29.5625,-64.375,0.0,-2.0625,-16.625,0.989319,0.144836,0.018372,0.0,0.0,0.0,0.0,-0.35,2.8,9.38,32
4.906343,-0.34,2.8,9.38,-0.125,0.0625,-0.0625,-32.25,30.75,-60.6875,0.0,-2.0625,-16.625,0.989319,0.144836,0.018372,0.0,0.0,0.0,0.0,-0.35,2.8,9.38,32
4.917246,-0.34,2.8,9.39,-0.375,0.0,0.0,-32.25,30.75,-60.6875,0.0,-2.0625,-16.625,0.989319,0.144836,0.018372,0.0,0.0,-0.01,-0.03,-0.35,2.8,9.38,32
4.928149,-0.35,2.79,9.35,-0.3125,-0.25,0.0,-32.25,30.75,-60.6875,0.0,-2.0625,-16.625,0.989319,0.144836,0.018372,0.0,0.02,0.01,-0.04,-0.35,2.8,9.38,32
4.939052,-0.33,2.82,9.34,-0.0625,0.0,0.0,-32.25,30.75,-60.6875,0.0,-2.0625,-16.625,0.989319,0.144836,0.018372,0.0,0.0,0.0,-0.01,-0.35,2.8,9.38,32
4.949955,-0.35,2.8,9.37,-0.125,0.0625,0.0,-32.25,30.75,-60.6875,0.0,-2.0625,-16.625,0.989319,0.144836,0.018372,0.0,0.01,0.01,0.01,-0.35,2.8,9.38,32
4.960858,-0.33,2.82,9.4,-0.25,0.0625,0.0625,-32.25,31.5,-60.6875,0.0,-2.0625,-16.625,0.989319,0.144836,0.018372,0.0,0.0,0.0,-0.01,-0.35,2.8,9.38,32
4.971761,-0.34,2.81,9.37,-0.25,0.0,-0.0625,-32.25,31.5,-60.6875,0.0,-2.0625,-16.625,0.989319,0.144836,0.018372,0.0,0.0,0.0,0.0,-0.35,2.8,9.38,32
4.982664,-0.35,2.81,9.39,-0.125,0.0,0.0625,-32.25,31.5,-60.6875,0.0,-2.0625,-16.625,0.989319,0.144836,0.018372,0.0,0.0,0.0,0.0,-0.35,2.8,9.38,32
4.993567,-0.35,2.8,9.38,0.0,0.0,0.0,-32.25,31.5,-60.6875,0.0,-2.0625,-16.625,0.989319,0.144836,0.018372,0.0,0.0,0.0,-0.02,-0.35,2.8,9.38,32
5.00447,-0.35,2.82,9.38,-0.3125,-0.1875,0.0625,-32.25,31.5,-60.6875,0.0,-2.0625,-16.625,0.989319,0.144836,0.018372,0.0,0.0,0.01,0.0,-0.35,2.8,9.38,32
5.015373,-0.37,2.79,9.38,-0.125,0.125,0.0,-31.0625,28.5,-66.0625,0.0,-2.0625,-16.625,0.989319,0.144836,0.018372,0.0,-0.01,-0.01,0.0,-0.35,2.8,9.38,32
5.026276,-0.35,2.81,9.39,-0.3125,-0.0625,0.0,-31.0625,28.5,-66.0625,0.0,-2.0625,-16.625,0.989319,0.144836,0.018372,0.0,0.0,0.0,-0.02,-0.35,2.8,9.38,32
5.037179,-0.34,2.8,9.36,-0.1875,0.125,0.0625,-31.0625,28.5,-66.0625,0.0,-2.0625,-16.625,0.989319,0.144836,0.018372,0.0,0.0,0.0,0.0,-0.35,2.8,9.38,32
5.048082,-0.35,2.8,9.39,-0.3125,0.0,0.125,-31.0625,28.5,-66.0625,0.0,-2.0625,-16.625,0.989319,0.144836,0.018372,0.0,-0.01,0.0,0.01,-0.35,2.8,9.38,32
5.058985,-0.36,2.81,9.4,-0.0625,0.0,0.0,-31.0625,28.5,-66.0625,0.0,-2.0625,-16.625,0.989319,0.144836,0.018372,0.0,-0.01,0.0,0.01,-0.35,2.8,9.38,32
5.069888,-0.36,2.82,9.41,0.1875,0.125,0.0625,-33.0,29.5625,-59.375,0.0,-2.0625,-16.625,0.989319,0.144836,0.018372,0.0,0.0,0.0,-0.03,-0.35,2.8,9.38,32
5.080791,-0.35,2.81,9.35,0.0625,0.125,0.0,-33.0,29.5625,-59.375,0.0,-2.0625,-16.625,0.989319,0.144836,0.018372,0.0,0.0,0.0,0.0,-0.35,2.8,9.38,32
5.091694,-0.35,2.8,9.38,0.0625,0.0,0.0,-33.0,29.5625,-59.375,0.0,-2.0625,-16.625,0.989319,0.144836,0.018372,0.0,0.0,-0.01,-0.01,-0.35,2.8,9.38,32
5.102597,-0.35,2.79,9.37,0.0,0.1875,0.0625,-33.0,29.5625,-59.375,0.0,-2.0625,-16.625,0.989319,0.144836,0.018372,0.0,0.0,0.0,0.0,-0.35,2.8,9.38,32
5.1135,-0.34,2.8,9.38,-0.125,-0.0625,0.0625,-32.25,30.0,-60.6875,0.0,-2.0625,-16.625,0.989319,0.144836,0.018372,0.0,0.0,0.01,0.01,-0.35,2.8,9.38,32
5.124403,-0.34,2.82,9.4,0.25,0.0625,0.0,-32.25,30.0,-60.6875,0.0,-2.0625,-16.625,0.989319,0.144836,0.018372,0.0,0.0,0.0,-0.01,-0.35,2.8,9.38,32
5.135306,-0.35,2.81,9.37,0.1875,0.0625,-0.0625,-32.25,30.0,-60.6875,0.0,-2.0625,-16.625,0.989319,0.144836,0.018372,0.0,0.0,0.0,-0.01,-0.35,2.8,9.38,32
5.146209,-0.36,2.8,9.37,-0.125,-0.1875,0.125,-32.25,30.0,-60.6875,0.0,-2.0625,-16.625,0.989319,0.144836,0.018372,0.0,-0.01,0.02,0.0,-0.35,2.8,9.38,32
5.157112,-0.36,2.83,9.39,0.0,-0.0625,-0.0625,-32.25,30.0,-60.6875,0.0,-2.0625,-16.625,0.989319,0.144836,0.018372,0.0,0.0,0.0,0.0,-0.35,2.8,9.38,32
5.168015,-0.35,2.81,9.38,-0.125,-0.0625,0.0625,-31.875,30.375,-61.0625,0.0,-2.0625,-16.625,0.989319,0.144836,0.018372,0.0,0.01,0.01,0.0,-0.35,2.8,9.38,32
5.178918,-0.34,2.82,9.39,-0.1875,-0.125,0.1875,-31.875,30.375,-61.0625,0.0,-2.0625,-16.625,0.989319,0.144836,0.018372,0.0,0.0,-0.01,0.0,-0.35,2.8,9.38,32
5.189821,-0.36,2.79,9.39,-0.125,-0.0625,0.0,-31.875,30.375,-61.0625,0.0,-2.0625,-16.625,0.989319,0.144836,0.018372,0.0,0.0,0.0,-0.02,-0.35,2.8,9.38,32
5.200724,-0.35,2.8,9.36,-0.1875,0.0,-0.0625,-31.875,30.375,-61.0625,0.0,-2.0625,-16.625,0.989319,0.144836,0.018372,0.0,0.0,0.0,-0.01,-0.35,2.8,9.38,32
5.211627,-0.34,2.81,9.37,-0.125,-0.1875,0.0,-31.875,30.375,-61.0625,0.0,-2.0625,-16.625,0.989319,0.144836,0.018372,0.0,0.0,0.0,0.0,-0.35,2.8,9.38,32
5.22253,-0.35,2.8,9.38,-0.0625,0.0625,-0.0625,-31.875,31.0625,-61.875,0.0,-2.0625,-16.625,0.989319,0.144836,0.018372,0.0,0.01,0.0,0.0,-0.35,2.8,9.38,32
5.233433,-0.34,2.8,9.38,-0.125,0.125,0.0,-31.875,31.0625,-61.875,0.0,-2.0625,-16.625,0.989319,0.144836,0.018372,0.0,0.0,0.01,-0.01,-0.35,2.8,9.38,32
5.244336,-0.35,2.82,9.37,-0.25,0.25,-0.0625,-31.875,31.0625,-61.875,0.0,-2.0625,-16.625,0.989319,0.144836,0.018372,0.0,0.01,0.0,0.0,-0.35,2.8,9.38,32
5.255239,-0.34,2.8,9.39,-0.25,-0.125,0.0,-31.875,31.0625,-61.875,0.0,-2.0625,-16.625,0.989319,0.144836,0.018372,0.0,-0.02,-0.01,0.03,-0.35,2.8,9.38,32
5.266142,-0.38,2.79,9.41,0.0,-0.0625,0.1875,-31.875,31.0625,-61.875,0.0,-2.0625,-16.625,0.989319,0.144836,0.018372,0.0,0.0,0.0,0.01,-0.35,2.8,9.38,32
5.277045,-0.36,2.8,9.4,0.0,0.0,0.0,-31.875,31.0625,-60.25,0.0,-2.0625,-16.625,0.989319,0.144836,0.018372,0.0,0.0,0.0,0.0,-0.35,2.8,9.38,32
5.287948,-0.35,2.8,9.39,-0.125,0.0,0.0,-31.875,31.0625,-60.25,0.0,-2.0625,-16.625,0.989319,0.144836,0.018372,0.0,0.0,0.0,0.0,-0.35,2.8,9.38,32
5.298851,-0.33,2.8,9.37,-0.125,-0.0625,-0.125,-31.875,31.0625,-60.25,0.0,-2.0625,-16.625,0.989319,0.144836,0.018372,0.0,0.0,0.01,0.0,-0.35,2.8,9.38,32
5.309754,-0.35,2.82,9.39,0.0,0.125,0.0625,-31.875,31.0625,-60.25,0.0,-2.0625,-16.625,0.989319,0.144836,0.018372,0.0,0.0,0.0,0.01,-0.35,2.8,9.38,32
5.320657,-0.34,2.8,9.4,-0.25,0.0625,-0.125,-31.875,31.0625,-60.25,0.0,-2.0625,-16.625,0.989319,0.144836,0.018372,0.0,0.0,0.0,0.01,-0.35,2.8,9.38,32
5.331559,-0.36,2.82,9.38,0.0,0.0,-0.0625,-32.5625,31.0625,-59.375,0.0,-2.0625,-16.625,0.989319,0.144836,0.018372,0.0,0.0,0.0,0.01,-0.35,2.8,9.38,32
5.342462,-0.34,2.81,9.4,-0.0625,0.0,0.0,-32.5625,31.0625,-59.375,0.0,-2.0625,-16.625,0.989319,0.144836,0.018372,0.0,0.0,0.03,-0.01,-0.35,2.8,9.38,32
5.353365,-0.35,2.83,9.37,0.0,-0.0625,-0.0625,-32.5625,31.0625,-59.375,0.0,-2.0625,-16.625,0.989319,0.144836,0.018372,0.0,0.0,0.0,0.0,-0.35,2.8,9.38,32
5.364268,-0.35,2.8,9.39,0.125,0.0625,0.0,-32.5625,31.0625,-59.375,0.0,-2.0625,-16.625,0.989319,0.144836,0.018372,0.0,0.0,0.0,0.02,-0.35,2.8,9.38,32
5.375171,-0.35,2.8,9.4,0.0625,0.0625,0.125,-32.5625,30.375,-59.5,0.0,-2.0625,-16.625,0.989319,0.144836,0.018372,0.0,0.0,0.0,0.0,-0.35,2.8,9.38,32
5.386074,-0.34,2.8,9.38,0.0,0.0,0.0,-32.5625,30.375,-59.5,0.0,-2.0625,-16.625,0.989319,0.144836,0.018372,0.0,0.01,0.0,0.02,-0.35,2.8,9.38,32
5.396977,-0.33,2.81,9.4,0.0,0.0,0.0,-32.5625,30.375,-59.5,0.0,-2.0625,-16.625,0.989319,0.144836,0.018372,0.0,0.0,-0.01,-0.01,-0.35,2.8,9.38,32
5.40788,-0.35,2.79,9.37,-0.1875,0.0,-0.0625,-32.5625,30.375,-59.5,0.0,-2.0625,-16.625,0.989319,0.144836,0.018372,0.0,0.0,0.01,0.0,-0.35,2.8,9.38,32
5.418783,-0.35,2.8,9.39,-0.3125,0.1875,-0.0625,-32.5625,30.375,-59.5,0.0,-2.0625,-16.625,0.989319,0.144836,0.018372,0.0,0.0,0.0,0.0,-0.35,2.8,9.38,32
5.429686,-0.35,2.83,9.39,-0.125,0.0,0.0,-33.0,30.75,-61.0625,0.0,-2.0625,-16.625,0.989319,0.144836,0.018372,0.0,0.0,0.02,0.0,-0.35,2.8,9.38,32
5.440589,-0.36,2.81,9.38,-0.1875,-0.125,-0.0625,-33.0,30.75,-61.0625,0.0,-2.0625,-16.625,0.989319,0.144836,0.018372,0.0,0.0,0.01,0.0,-0.35,2.8,9.38,32
5.451492,-0.35,2.82,9.38,-0.125,-0.0625,0.0,-33.0,30.75,-61.0625,0.0,-2.0625,-16.625,0.989319,0.144836,0.018372,0.0,0.01,0.0,0.02,-0.35,2.8,9.38,32
5.462395,-0.34,2.8,9.4,-0.3125,-0.25,0.0625,-33.0,30.75,-61.0625,0.0,-2.0625,-16.625,0.989319,0.144836,0.018372,0.0,0.0,0.02,0.0,-0.35,2.8,9.38,32
5.473298,-0.34,2.83,9.39,-0.1875,-0.125,-0.0625,-33.0,30.75,-61.0625,0.0,-2.0625,-16.625,0.989319,0.144836,0.018372,0.0,0.0,0.02,0.0,-0.35,2.8,9.38,32
5.484201,-0.35,2.81,9.38,-0.125,0.3125,0.0,-33.0,30.375,-61.0625,0.0,-2.0625,-16.625,0.989319,0.144836,0.018372,0.0,0.01,0.0,0.01,-0.35,2.8,9.38,32
5.495104,-0.34,2.81,9.4,-0.1875,-0.1875,0.0625,-33.0,30.375,-61.0625,0.0,-2.0625,-16.625,0.989319,0.144836,0.018372,0.0,0.0,-0.03,-0.03,-0.35,2.8,9.38,32
5.506007,-0.36,2.77,9.35,0.125,-0.1875,0.0625,-33.0,30.375,-61.0625,0.0,-2.0625,-16.625,0.989319,0.144836,0.018372,0.0,0.01,0.01,0.0,-0.35,2.8,9.38,32
5.51691,-0.34,2.82,9.38,-0.125,0.25,-0.0625,-33.0,30.375,-61.0625,0.0,-2.0625,-16.625,0.989319,0.144836,0.018372,0.0,0.0,0.0,-0.01,-0.35,2.8,9.38,32
5.527813,-0.35,2.81,9.37,-0.0625,0.25,-0.0625,-31.5,30.375,-59.875,0.0,-2.0625,-16.625,0.989319,0.144836,0.018372,0.0,0.0,-0.01,0.0,-0.35,2.8,9.38,32
5.538716,-0.37,2.82,9.38,-0.1875,-0.0625,-0.0625,-31.5,30.375,-59.875,0.0,-2.0625,-16.625,0.989319,0.144836,0.018372,0.0,-0.01,0.01,0.0,-0.35,2.8,9.38,32
5.549619,-0.35,2.82,9.38,-0.1875,0.0,0.125,-31.5,30.375,-59.875,0.0,-2.0625,-16.625,0.989319,0.144836,0.018372,0.0,0.0,-0.01,0.0,-0.35,2.8,9.38,32
5.560522,-0.35,2.79,9.39,-0.0625,0.0625,0.0,-31.5,30.375,-59.875,0.0,-2.0625,-16.625,0.989319,0.144836,0.018372,0.0,0.0,0.0,-0.01,-0.35,2.8,9.38,32
5.571425,-0.35,2.8,9.37,-0.125,0.0,0.0625,-31.5,30.375,-59.875,0.0,-2.0625,-16.625,0.989319,0.144836,0.018372,0.0,0.0,0.0,-0.01,-0.35,2.8,9.38,32
5.582328,-0.36,2.8,9.38,-0.125,-0.125,0.0,-31.5,31.0625,-60.25,0.0,-2.0625,-16.625,0.989319,0.144836,0.018372,0.0,0.0,0.02,-0.03,-0.35,2.8,9.38,32
5.593231,-0.35,2.83,9.35,-0.5,-0.25,-0.0625,-31.5,31.0625,-60.25,0.0,-2.0625,-16.625,0.989319,0.144836,0.018372,0.0,0.01,0.01,-0.01,-0.35,2.8,9.38,32
5.604134,-0.33,2.82,9.37,-0.125,-0.0625,0.0625,-31.5,31.0625,-60.25,0.0,-2.0625,-16.625,0.989319,0.144836,0.018372,0.0,0.01,-0.02,0.01,-0.35,2.8,9.38,32
5.615037,-0.33,2.78,9.4,0.0625,0.0625,-0.125,-31.5,31.0625,-60.25,0.0,-2.0625,-16.625,0.989319,0.144836,0.018372,0.0,0.01,0.0,0.0,-0.35,2.8,9.38,32
5.62594,-0.34,2.8,9.38,-0.25,0.125,0.0,-33.375,29.25,-64.75,0.0,-2.0625,-16.625,0.989319,0.144836,0.018372,0.0,0.0,0.0,0.0,-0.35,2.8,9.38,32
5.636843,-0.36,2.8,9.38,-0.25,0.125,0.0,-33.375,29.25,-64.75,0.0,-2.0625,-16.625,0.989319,0.144836,0.018372,0.0,-0.01,0.0,-0.01,-0.35,2.8,9.38,32
5.647746,-0.36,2.8,9.37,-0.0625,0.125,0.0625,-33.375,29.25,-64.75,0.0,-2.0625,-16.625,0.989319,0.144836,0.018372,0.0,0.0,0.0,-0.01,-0.35,2.8,9.38,32
5.658649,-0.36,2.8,9.37,-0.0625,-0.0625,-0.0625,-33.375,29.25,-64.75,0.0,-2.0625,-16.625,0.989319,0.144836,0.018372,0.0,-0.01,-0.03,0.02,-0.35,2.8,9.38,32
5.669552,-0.36,2.77,9.4,-0.0625,-0.1875,0.0,-33.375,29.25,-64.75,0.0,-2.0625,-16.625,0.989319,0.144836,0.018372,0.0,0.0,0.0,0.0,-0.35,2.8,9.38,32
5.680455,-0.34,2.8,9.39,-0.1875,0.0625,0.0,-32.25,31.0625,-60.6875,0.0,-2.0625,-16.625,0.989319,0.144836,0.018372,0.0,0.0,0.0,0.01,-0.35,2.8,9.38,32
5.691358,-0.36,2.81,9.4,0.125,0.0,-0.0625,-32.25,31.0625,-60.6875,0.0,-2.0625,-16.625,0.989319,0.144836,0.018372,0.0,0.0,0.0,0.0,-0.35,2.8,9.38,32
5.702261,-0.35,2.8,9.38,-0.125,-0.125,0.0625,-32.25,31.0625,-60.6875,0.0,-2.0625,-16.625,0.989319,0.144836,0.018372,0.0,0.0,-0.01,-0.03,-0.35,2.8,9.38,32
5.713164,-0.35,2.79,9.35,-0.375,-0.1875,0.0,-32.25,31.0625,-60.6875,0.0,-2.0625,-16.625,0.989319,0.144836,0.018372,0.0,0.0,0.01,0.0,-0.35,2.8,9.38,32
5.724067,-0.36,2.82,9.38,-0.125,-0.1875,0.0,-32.25,31.0625,-60.6875,0.0,-2.0625,-16.625,0.989319,0.144836,0.018372,0.0,0.0,0.01,-0.02,-0.35,2.8,9.38,32
5.73497,-0.35,2.82,9.36,0.0,0.125,0.0,-32.5625,31.0625,-59.0625,0.0,-2.0625,-16.625,0.989319,0.144836,0.018372,0.0,0.0,0.0,0.0,-0.35,2.8,9.38,32
5.745873,-0.35,2.8,9.39,0.0,-0.0625,0.0625,-32.5625,31.0625,-59.0625,0.0,-2.0625,-16.625,0.989319,0.144836,0.018372,0.0,0.01,-0.01,0.0,-0.35,2.8,9.38,32
5.756776,-0.36,2.8,9.39,-0.1875,0.125,0.0,-32.5625,31.0625,-59.0625,0.0,-2.0625,-16.625,0.989319,0.144836,0.018372,0.0,0.0,0.0,0.0,-0.35,2.8,9.38,32
5.767679,-0.35,2.82,9.36,0.125,0.25,0.125,-32.5625,31.0625,-59.0625,0.0,-2.0625,-16.625,0.989319,0.144836,0.018372,0.0,0.01,0.0,-0.02,-0.35,2.8,9.38,32
5.778582,-0.34,2.81,9.36,-0.25,-0.0625,0.125,-32.5625,31.0625,-59.0625,0.0,-2.0625,-16.625,0.989319,0.144836,0.018372,0.0,0.01,0.0,-0.02,-0.35,2.8,9.38,32
5.789485,-0.34,2.82,9.4,-0.125,0.1875,-0.0625,-33.0,30.75,-60.6875,0.0,-2.0625,-16.625,0.989319,0.144836,0.018372,0.0,0.0,0.01,0.03,-0.35,2.8,9.38,32
5.800388,-0.35,2.82,9.42,-0.125,-0.25,0.0625,-33.0,30.75,-60.6875,0.0,-2.0625,-16.625,0.989319,0.144836,0.018372,0.0,0.0,0.0,-0.01,-0.35,2.8,9.38,32
5.811291,-0.35,2.8,9.37,0.0,0.0625,0.0625,-33.0,30.75,-60.6875,0.0,-2.0625,-16.625,0.989319,0.144836,0.018372,0.0,-0.01,0.02,0.02,-0.35,2.8,9.38,32
5.822194,-0.36,2.83,9.4,-0.25,-0.0625,0.0625,-33.0,30.75,-60.6875,0.0,-2.0625,-16.625,0.989319,0.144836,0.018372,0.0,0.0,0.0,-0.01,-0.35,2.8,9.38,32
5.833097,-0.34,2.79,9.37,0.125,0.1875,0.125,-32.5625,30.375,-62.375,0.0,-2.0625,-16.625,0.989319,0.144836,0.018372,0.0,0.0,-0.01,-0.01,-0.35,2.8,9.38,32
5.844,-0.35,2.79,9.39,-0.0625,-0.0625,0.125,-32.5625,30.375,-62.375,0.0,-2.0625,-16.625,0.989319,0.144836,0.018372,0.0,0.0,-0.01,0.0,-0.35,2.8,9.38,32
5.854903,-0.35,2.82,9.36,-0.125,0.125,0.0,-32.5625,30.375,-62.375,0.0,-2.0625,-16.625,0.989319,0.144836,0.018372,0.0,0.0,0.0,-0.02,-0.35,2.8,9.38,32
5.865806,-0.35,2.8,9.36,0.0,0.0,0.0,-32.5625,30.375,-62.375,0.0,-2.0625,-16.625,0.989319,0.144836,0.018372,0.0,0.0,0.01,0.0,-0.35,2.8,9.38,32
5.876709,-0.34,2.82,9.39,-0.25,-0.0625,0.0,-32.5625,30.375,-62.375,0.0,-2.0625,-16.625,0.989319,0.144836,0.018372,0.0,0.0,0.01,0.0,-0.35,2.8,9.38,32
5.887612,-0.33,2.79,9.39,0.0,0.1875,-0.0625,-29.5625,29.5625,-65.25,0.0,-2.0625,-16.625,0.989319,0.144836,0.018372,0.0,0.0,0.0,0.0,-0.35,2.8,9.38,32
5.898515,-0.36,2.8,9.38,-0.0625,0.0625,0.0,-29.5625,29.5625,-65.25,0.0,-2.0625,-16.625,0.989319,0.144836,0.018372,0.0,0.0,-0.01,-0.02,-0.35,2.8,9.38,32
5.909418,-0.35,2.79,9.36,0.0625,0.0,0.0625,-29.5625,29.5625,-65.25,0.0,-2.0625,-16.625,0.989319,0.144836,0.018372,0.0,0.0,0.01,0.0,-0.35,2.8,9.38,32
5.920321,-0.35,2.82,9.38,-0.125,0.0625,0.0625,-29.5625,29.5625,-65.25,0.0,-2.0625,-16.625,0.989319,0.144836,0.018372,0.0,0.0,0.0,0.01,-0.35,2.8,9.38,32
5.931224,-0.34,2.81,9.4,0.0,0.125,0.0625,-30.0,28.875,-64.875,0.0,-2.0625,-16.625,0.989319,0.144836,0.018372,0.0,0.01,0.02,0.0,-0.35,2.8,9.38,32
5.942127,-0.35,2.8,9.38,0.0,0.125,0.0625,-30.0,28.875,-64.875,0.0,-2.0625,-16.625,0.989319,0.144836,0.018372,0.0,0.0,0.0,0.0,-0.35,2.8,9.38,32
5.95303,-0.34,2.8,9.36,0.0,0.25,0.0,-30.0,28.875,-64.875,0.0,-2.0625,-16.625,0.989319,0.144836,0.018372,0.0,0.0,0.01,0.0,-0.35,2.8,9.38,32
5.963933,-0.35,2.82,9.38,0.0,0.0,-0.0625,-30.0,28.875,-64.875,0.0,-2.0625,-16.625,0.989319,0.144836,0.018372,0.0,0.0,0.0,-0.01,-0.35,2.8,9.38,32
5.974836,-0.34,2.81,9.37,0.0625,0.0625,0.125,-30.0,28.875,-64.875,0.0,-2.0625,-16.625,0.989319,0.144836,0.018372,0.0,0.0,0.0,-0.01,-0.35,2.8,9.38,32
5.985739,-0.33,2.81,9.37,0.0,0.0,0.0,-29.5625,29.25,-64.875,0.0,-2.0625,-16.625,0.989319,0.144836,0.018372,0.0,0.0,-0.01,0.01,-0.35,2.8,9.38,32
5.996642,-0.36,2.79,9.4,0.0,-0.125,0.0,-29.5625,29.25,-64.875,0.0,-2.0625,-16.625,0.989319,0.144836,0.018372,0.0,0.0,-0.01,-0.03,-0.35,2.8,9.38,32
6.007545,-0.35,2.79,9.35,-0.1875,0.0,0.0,-29.5625,29.25,-64.875,0.0,-2.0625,-16.625,0.989319,0.144836,0.018372,0.0,0.0,0.0,-0.01,-0.35,2.8,9.38,32
6.018448,-0.35,2.81,9.37,-0.25,-0.3125,0.0625,-29.5625,29.25,-64.875,0.0,-2.0625,-16.625,0.989319,0.144836,0.018372,0.0,0.0,0.02,0.01,-0.35,2.8,9.38,32
6.029351,-0.34,2.83,9.4,-0.125,-0.0625,0.0,-32.25,29.5625,-65.25,0.0,-2.0625,-16.625,0.989319,0.144836,0.018372,0.0,-0.02,-0.01,0.0,-0.35,2.8,9.38,32
6.040253,-0.37,2.79,9.39,-0.125,0.0,0.125,-32.25,29.5625,-65.25,0.0,-2.0625,-16.625,0.989319,0.144836,0.018372,0.0,0.0,0.02,0.03,-0.35,2.8,9.38,32
6.051156,-0.35,2.83,9.42,0.0,0.0,0.0,-32.25,29.5625,-65.25,0.0,-2.0625,-16.625,0.989319,0.144836,0.018372,0.0,0.0,0.0,0.0,-0.35,2.8,9.38,32
6.062059,-0.35,2.81,9.38,0.0,0.0625,0.0,-32.25,29.5625,-65.25,0.0,-2.0625,-16.625,0.989319,0.144836,0.018372,0.0,0.0,0.0,0.01,-0.35,2.8,9.38,32
6.072962,-0.36,2.81,9.4,-0.125,0.0625,-0.0625,-32.25,29.5625,-65.25,0.0,-2.0625,-16.625,0.989319,0.144836,0.018372,0.0,0.0,0.0,0.0,-0.35,2.8,9.38,32
6.083865,-0.34,2.81,9.38,-0.125,0.0,0.125,-29.25,28.5,-66.0625,0.0,-2.0625,-16.625,0.989319,0.144836,0.018372,0.0,0.0,-0.01,0.0,-0.35,2.8,9.38,32
6.094768,-0.35,2.79,9.38,-0.125,0.0,0.0,-29.25,28.5,-66.0625,0.0,-2.0625,-16.625,0.989319,0.144836,0.018372,0.0,0.01,0.01,0.0,-0.35,2.8,9.38,32
6.105671,-0.34,2.82,9.39,-0.1875,-0.125,0.0625,-29.25,28.5,-66.0625,0.0,-2.0625,-16.625,0.989319,0.144836,0.018372,0.0,0.0,0.0,-0.01,-0.35,2.8,9.38,32
6.116574,-0.34,2.8,9.37,-0.1875,-0.1875,-0.0625,-29.25,28.5,-66.0625,0.0,-2.0625,-16.625,0.989319,0.144836,0.018372,0.0,0.0,0.01,0.0,-0.35,2.8,9.38,32
6.127477,-0.34,2.82,9.38,-0.125,-0.25,0.0,-29.25,28.5,-66.0625,0.0,-2.0625,-16.625,0.989319,0.144836,0.018372,0.0,0.0,0.01,0.01,-0.35,2.8,9.38,32
6.13838,-0.34,2.82,9.4,-0.0625,-0.25,-0.0625,-29.25,29.25,-64.0,0.0,-2.0625,-16.625,0.989319,0.144836,0.018372,0.0,0.0,0.01,0.0,-0.35,2.8,9.38,32
6.149283,-0.35,2.82,9.38,0.0625,0.125,-0.0625,-29.25,29.25,-64.0,0.0,-2.0625,-16.625,0.989319,0.144836,0.018372,0.0,0.0,0.0,0.0,-0.35,2.8,9.38,32
6.160186,-0.34,2.81,9.39,-0.125,-0.1875,0.0625,-29.25,29.25,-64.0,0.0,-2.0625,-16.625,0.989319,0.144836,0.018372,0.0,0.0,0.0,0.01,-0.35,2.8,9.38,32
6.171089,-0.35,2.8,9.4,-0.125,0.125,0.0,-29.25,29.25,-64.0,0.0,-2.0625,-16.625,0.989319,0.144836,0.018372,0.0,-0.01,0.0,0.0,-0.35,2.8,9.38,32
6.181992,-0.36,2.8,9.39,-0.125,0.0625,0.125,-29.25,29.25,-64.0,0.0,-2.0625,-16.625,0.989319,0.144836,0.018372,0.0,0.01,0.01,0.02,-0.35,2.8,9.38,32
6.192895,-0.34,2.82,9.41,-0.125,-0.25,0.0625,-32.25,30.0,-61.5625,0.0,-2.0625,-16.625,0.989319,0.144836,0.018372,0.0,0.0,0.01,0.0,-0.35,2.8,9.38,32
6.203798,-0.35,2.79,9.42,-0.125,-0.0625,0.0625,-32.25,30.0,-61.5625,0.0,-2.0625,-16.625,0.989319,0.144836,0.018372,0.0,0.0,-0.01,0.03,-0.35,2.8,9.38,32
6.214701,-0.36,2.79,9.37,-0.125,-0.1875,0.0,-32.25,30.0,-61.5625,0.0,-2.0625,-16.625,0.989319,0.144836,0.018372,0.0,0.0,0.0,-0.02,-0.35,2.8,9.38,32
6.225604,-0.35,2.8,9.36,-0.1875,0.0625,0.0,-32.25,30.0,-61.5625,0.0,-2.0625,-16.625,0.989319,0.144836,0.018372,0.0,0.0,0.0,0.01,-0.35,2.8,9.38,32
6.236507,-0.36,2.81,9.4,-0.0625,-0.375,0.0625,-32.25,30.0,-61.5625,0.0,-2.0625,-16.625,0.989319,0.144836,0.018372,0.0,0.0,0.0,0.02,-0.35,2.8,9.38,32
6.24741,-0.35,2.81,9.4,-0.125,-0.1875,0.0,-31.0625,30.375,-61.875,0.0,-2.0625,-16.625,0.989319,0.144836,0.018372,0.0,0.0,-0.02,0.01,-0.35,2.8,9.38,32
6.258313,-0.35,2.78,9.4,-0.0625,0.0625,-0.1875,-31.0625,30.375,-61.875,0.0,-2.0625,-16.625,0.989319,0.144836,0.018372,0.0,0.0,0.02,0.0,-0.35,2.8,9.38,32
6.269216,-0.35,2.83,9.38,0.0625,0.125,0.0,-31.0625,30.375,-61.875,0.0,-2.0625,-16.625,0.989319,0.144836,0.018372,0.0,0.0,0.0,-0.02,-0.35,2.8,9.38,32
6.280119,-0.36,2.81,9.36,0.1875,0.125,0.125,-31.0625,30.375,-61.875,0.0,-2.0625,-16.625,0.989319,0.144836,0.018372,0.0,-0.01,-0.02,0.0,-0.35,2.8,9.38,32
6.291022,-0.36,2.78,9.38,-0.25,0.0,-0.125,-32.25,29.5625,-63.5625,0.0,-2.0625,-16.625,0.989319,0.144836,0.018372,0.0,0.01,0.0,-0.01,-0.35,2.8,9.38,32
6.301925,-0.36,2.82,9.39,-0.0625,-0.125,-0.0625,-32.25,29.5625,-63.5625,0.0,-2.0625,-16.625,0.989319,0.144836,0.018372,0.0,0.0,0.01,0.0,-0.35,2.8,9.38,32
6.312828,-0.36,2.8,9.36,0.0,0.1875,-0.1875,-32.25,29.5625,-63.5625,0.0,-2.0625,-16.625,0.989319,0.144836,0.018372,0.0,0.0,0.0,0.0,-0.35,2.8,9.38,32
6.323731,-0.34,2.81,9.39,-0.125,0.0625,0.0625,-32.25,29.5625,-63.5625,0.0,-2.0625,-16.625,0.989319,0.144836,0.018372,0.0,0.0,0.02,0.01,-0.35,2.8,9.38,32
6.334634,-0.34,2.83,9.4,0.0625,0.0625,0.0,-32.25,29.5625,-63.5625,0.0,-2.0625,-16.625,0.989319,0.144836,0.018372,0.0,0.0,0.02,0.01,-0.35,2.8,9.38,32
6.345537,-0.34,2.8,9.41,-0.0625,0.0625,0.0,-34.0625,31.0625,-59.5,0.0,-2.0625,-16.625,0.989319,0.144836,0.018372,0.0,0.0,0.0,0.0,-0.35,2.8,9.38,32
6.35644,-0.35,2.8,9.39,-0.1875,-0.0625,0.0,-34.0625,31.0625,-59.5,0.0,-2.0625,-16.625,0.989319,0.144836,0.018372,0.0,0.0,-0.02,-0.01,-0.35,2.8,9.38,32
6.367343,-0.35,2.78,9.37,-0.125,-0.0625,0.0,-34.0625,31.0625,-59.5,0.0,-2.0625,-16.625,0.989319,0.144836,0.018372,0.0,0.01,-0.02,0.01,-0.35,2.8,9.38,32
6.378246,-0.34,2.78,9.4,-0.125,0.125,0.0625,-34.0625,31.0625,-59.5,0.0,-2.0625,-16.625,0.989319,0.144836,0.018372,0.0,0.0,-0.01,0.02,-0.35,2.8,9.38,32
6.389149,-0.34,2.79,9.41,-0.5,-0.0625,0.0625,-34.0625,30.375,-61.0625,0.0,-2.0625,-16.625,0.989319,0.144836,0.018372,0.0,-0.01,0.0,-0.03,-0.35,2.8,9.38,32
6.400052,-0.36,2.8,9.35,0.0625,0.0625,0.0,-34.0625,30.375,-61.0625,0.0,-2.0625,-16.625,0.989319,0.144836,0.018372,0.0,0.01,0.0,-0.01,-0.35,2.8,9.38,32
6.410955,-0.34,2.81,9.37,0.125,0.0,0.0,-34.0625,30.375,-61.0625,0.0,-2.0625,-16.625,0.989319,0.144836,0.018372,0.0,0.0,-0.01,0.0,-0.35,2.8,9.38,32
6.421858,-0.35,2.79,9.38,-0.1875,-0.125,0.0625,-34.0625,30.375,-61.0625,0.0,-2.0625,-16.625,0.989319,0.144836,0.018372,0.0,0.01,0.01,-0.01,-0.35,2.8,9.38,32
6.432761,-0.33,2.82,9.37,-0.25,0.25,-0.0625,-34.0625,30.375,-61.0625,0.0,-2.0625,-16.625,0.989319,0.144836,0.018372,0.0,-0.01,0.0,0.02,-0.35,2.8,9.38,32
6.443664,-0.36,2.8,9.4,-0.25,0.0,-0.0625,-33.75,31.0625,-59.5,0.0,-2.0625,-16.625,0.989319,0.144836,0.018372,0.0,0.0,0.0,0.0,-0.35,2.8,9.38,32
6.454567,-0.34,2.81,9.41,-0.25,-0.125,0.0625,-33.75,31.0625,-59.5,0.0,-2.0625,-16.625,0.989319,0.144836,0.018372,0.0,0.0,0.0,0.02,-0.35,2.8,9.38,32
6.46547,-0.35,2.83,9.37,-0.375,-0.0625,0.1875,-33.75,31.0625,-59.5,0.0,-2.0625,-16.625,0.989319,0.144836,0.018372,0.0,0.0,0.0,0.0,-0.35,2.8,9.38,32
6.476373,-0.35,2.8,9.38,-0.0625,0.125,0.0625,-33.75,31.0625,-59.5,0.0,-2.0625,-16.625,0.989319,0.144836,0.018372,0.0,0.0,0.0,0.02,-0.35,2.8,9.38,32
6.487276,-0.35,2.81,9.4,0.0,0.0625,0.0625,-33.75,31.0625,-59.5,0.0,-2.0625,-16.625,0.989319,0.144836,0.018372,0.0,0.0,0.0,0.02,-0.35,2.8,9.38,32
6.498179,-0.35,2.79,9.39,-0.0625,0.0,-0.125,-31.0625,29.5625,-61.0625,0.0,-2.0625,-16.625,0.989319,0.144836,0.018372,0.0,0.0,0.0,0.0,-0.35,2.8,9.38,32
6.509082,-0.35,2.81,9.38,0.0,0.0,0.0,-31.0625,29.5625,-61.0625,0.0,-2.0625,-16.625,0.989319,0.144836,0.018372,0.0,0.0,0.0,-0.01,-0.35,2.8,9.38,32
6.519985,-0.36,2.81,9.37,0.0,0.1875,0.0,-31.0625,29.5625,-61.0625,0.0,-2.0625,-16.625,0.989319,0.144836,0.018372,0.0,0.0,0.01,0.0,-0.35,2.8,9.38,32
6.530888,-0.36,2.82,9.39,0.1875,0.125,-0.0625,-31.0625,29.5625,-61.0625,0.0,-2.0625,-16.625,0.989319,0.144836,0.018372,0.0,0.0,0.01,-0.01,-0.35,2.8,9.38,32
6.541791,-0.35,2.82,9.37,-0.1875,0.3125,-0.125,-31.875,30.0,-60.75,0.0,-2.0625,-16.625,0.989319,0.144836,0.018372,0.0,0.0,0.0,0.0,-0.35,2.8,9.38,32
6.552694,-0.34,2.8,9.39,-0.3125,0.25,0.0,-31.875,30.0,-60.75,0.0,-2.0625,-16.625,0.989319,0.144836,0.018372,0.0,0.0,0.02,0.01,-0.35,2.8,9.38,32
6.563597,-0.35,2.83,9.4,-0.1875,0.0,0.0625,-31.875,30.0,-60.75,0.0,-2.0625,-16.625,0.989319,0.144836,0.018372,0.0,0.0,-0.01,0.0,-0.35,2.8,9.38,32
6.5745,-0.35,2.79,9.38,0.0,0.0,-0.0625,-31.875,30.0,-60.75,0.0,-2.0625,-16.625,0.989319,0.144836,0.018372,0.0,-0.01,0.0,0.0,-0.35,2.8,9.38,32
6.585403,-0.36,2.8,9.39,-0.1875,-0.1875,0.0,-31.875,30.0,-60.75,0.0,-2.0625,-16.625,0.989319,0.144836,0.018372,0.0,0.0,0.0,-0.01,-0.35,2.8,9.38,32
6.596306,-0.34,2.81,9.37,0.0,-0.125,0.1875,-31.875,30.375,-60.25,0.0,-2.0625,-16.625,0.989319,0.144836,0.018372,0.0,0.0,-0.01,0.01,-0.35,2.8,9.38,32
6.607209,-0.36,2.79,9.39,-0.125,0.125,-0.0625,-31.875,30.375,-60.25,0.0,-2.0625,-16.625,0.989319,0.144836,0.018372,0.0,0.0,-0.01,0.0,-0.35,2.8,9.38,32
6.618112,-0.35,2.81,9.39,-0.1875,0.125,0.0,-31.875,30.375,-60.25,0.0,-2.0625,-16.625,0.989319,0.144836,0.018372,0.0,-0.01,0.01,0.0,-0.35,2.8,9.38,32
6.629015,-0.36,2.82,9.38,-0.0625,0.0,-0.0625,-31.875,30.375,-60.25,0.0,-2.0625,-16.625,0.989319,0.144836,0.018372,0.0,0.0,0.0,-0.01,-0.35,2.8,9.38,32
6.639918,-0.34,2.81,9.37,0.25,0.0625,-0.0625,-31.875,30.375,-60.25,0.0,-2.0625,-16.625,0.989319,0.144836,0.018372,0.0,0.0,0.0,-0.01,-0.35,2.8,9.38,32
6.650821,-0.34,2.8,9.41,0.3125,0.125,0.0,-31.875,30.375,-61.0625,0.0,-2.0625,-16.625,0.989319,0.144836,0.018372,0.0,0.0,0.01,0.0,-0.35,2.8,9.38,32
6.661724,-0.34,2.82,9.38,-0.125,0.1875,0.0,-31.875,30.375,-61.0625,0.0,-2.0625,-16.625,0.989319,0.144836,0.018372,0.0,0.01,0.0,0.0,-0.35,2.8,9.38,32
6.672627,-0.33,2.8,9.38,0.0625,0.1875,0.0,-31.875,30.375,-61.0625,0.0,-2.0625,-16.625,0.989319,0.144836,0.018372,0.0,0.0,0.0,-0.02,-0.35,2.8,9.38,32
6.68353,-0.36,2.81,9.36,-0.375,0.0625,0.0625,-31.875,30.375,-61.0625,0.0,-2.0625,-16.625,0.989319,0.144836,0.018372,0.0,0.0,0.0,0.02,-0.35,2.8,9.38,32
6.694433,-0.34,2.8,9.4,-0.125,-0.125,0.0,-32.5625,30.75,-59.875,0.0,-2.0625,-16.625,0.989319,0.144836,0.018372,0.0,0.0,0.0,0.01,-0.35,2.8,9.38,32
6.705336,-0.35,2.81,9.4,0.0625,-0.0625,0.0625,-32.5625,30.75,-59.875,0.0,-2.0625,-16.625,0.989319,0.144836,0.018372,0.0,0.0,0.0,0.0,-0.35,2.8,9.38,32
6.716239,-0.35,2.81,9.38,-0.3125,-0.0625,0.125,-32.5625,30.75,-59.875,0.0,-2.0625,-16.625,0.989319,0.144836,0.018372,0.0,0.0,0.0,0.0,-0.35,2.8,9.38,32
6.727142,-0.36,2.8,9.39,0.0625,0.3125,0.0625,-32.5625,30.75,-59.875,0.0,-2.0625,-16.625,0.989319,0.144836,0.018372,0.0,0.0,-0.01,-0.01,-0.35,2.8,9.38,32
6.738045,-0.36,2.79,9.37,0.0625,0.1875,-0.0625,-32.5625,30.75,-59.875,0.0,-2.0625,-16.625,0.989319,0.144836,0.018372,0.0,0.0,-0.02,-0.02,-0.35,2.8,9.38,32
6.748947,-0.35,2.78,9.36,0.0,0.0,0.125,-32.5625,30.375,-61.5625,0.0,-2.0625,-16.625,0.989319,0.144836,0.018372,0.0,0.0,0.0,0.0,-0.35,2.8,9.38,32
6.75985,-0.35,2.8,9.38,-0.1875,0.0,0.0,-32.5625,30.375,-61.5625,0.0,-2.0625,-16.625,0.989319,0.144836,0.018372,0.0,0.0,0.02,-0.01,-0.35,2.8,9.38,32
6.770753,-0.34,2.83,9.37,-0.125,-0.1875,0.0625,-32.5625,30.375,-61.5625,0.0,-2.0625,-16.625,0.989319,0.144836,0.018372,0.0,0.0,0.0,-0.03,-0.35,2.8,9.38,32
6.781656,-0.34,2.81,9.35,-0.0625,-0.0625,-0.0625,-32.5625,30.375,-61.5625,0.0,-2.0625,-16.625,0.989319,0.144836,0.018372,0.0,-0.01,0.0,0.0,-0.35,2.8,9.38,32
6.792559,-0.36,2.8,9.38,-0.0625,-0.0625,0.0625,-32.5625,30.375,-61.5625,0.0,-2.0625,-16.625,0.989319,0.144836,0.018372,0.0,0.0,-0.01,0.0,-0.35,2.8,9.38,32
6.803462,-0.34,2.79,9.39,-0.25,-0.0625,0.0625,-32.5625,30.0,-59.0625,0.0,-2.0625,-16.625,0.989319,0.144836,0.018372,0.0,-0.01,0.0,0.01,-0.35,2.8,9.38,32
6.814365,-0.36,2.81,9.4,0.0625,-0.1875,-0.0625,-32.5625,30.0,-59.0625,0.0,-2.0625,-16.625,0.989319,0.144836,0.018372,0.0,0.0,-0.01,-0.01,-0.35,2.8,9.38,32
6.825268,-0.34,2.8,9.38,-0.0625,0.375,0.0,-32.5625,30.0,-59.0625,0.0,-2.0625,-16.625,0.989319,0.144836,0.018372,0.0,0.0,0.0,0.0,-0.35,2.8,9.38,32
6.836171,-0.34,2.8,9.38,-0.125,0.125,0.0,-32.5625,30.0,-59.0625,0.0,-2.0625,-16.625,0.989319,0.144836,0.018372,0.0,-0.01,0.01,0.0,-0.35,2.8,9.38,32
6.847074,-0.36,2.82,9.38,-0.1875,0.1875,0.0625,-32.5625,30.0,-59.0625,0.0,-2.0625,-16.625,0.989319,0.144836,0.018372,0.0,-0.01,0.01,0.0,-0.35,2.8,9.38,32
6.857977,-0.36,2.78,9.4,-0.0625,0.0625,0.0,-29.25,29.5625,-64.875,0.0,-2.0625,-16.625,0.989319,0.144836,0.018372,0.0,0.0,-0.02,-0.01,-0.35,2.8,9.38,32
6.86888,-0.36,2.78,9.37,-0.1875,-0.125,-0.0625,-29.25,29.5625,-64.875,0.0,-2.0625,-16.625,0.989319,0.144836,0.018372,0.0,0.01,0.0,-0.03,-0.35,2.8,9.38,32
6.879783,-0.34,2.8,9.35,-0.1875,0.0625,-0.125,-29.25,29.5625,-64.875,0.0,-2.0625,-16.625,0.989319,0.144836,0.018372,0.0,0.0,0.0,0.01,-0.35,2.8,9.38,32
6.890686,-0.34,2.8,9.4,-0.1875,0.0625,0.0,-29.25,29.5625,-64.875,0.0,-2.0625,-16.625,0.989319,0.144836,0.018372,0.0,0.0,-0.01,0.02,-0.35,2.8,9.38,32
6.901589,-0.34,2.79,9.4,-0.125,-0.25,0.0625,-34.0625,29.5625,-59.5,0.0,-2.0625,-16.625,0.989319,0.144836,0.018372,0.0,0.0,-0.01,0.02,-0.35,2.8,9.38,32
6.912492,-0.36,2.79,9.4,0.1875,0.3125,0.0,-34.0625,29.5625,-59.5,0.0,-2.0625,-16.625,0.989319,0.144836,0.018372,0.0,0.0,0.01,0.01,-0.35,2.8,9.38,32
6.923395,-0.35,2.82,9.4,0.0,0.1875,0.0625,-34.0625,29.5625,-59.5,0.0,-2.0625,-16.625,0.989319,0.144836,0.018372,0.0,-0.01,-0.01,-0.02,-0.35,2.8,9.38,32
6.934298,-0.36,2.79,9.36,-0.125,-0.0625,0.0625,-34.0625,29.5625,-59.5,0.0,-2.0625,-16.625,0.989319,0.144836,0.018372,0.0,0.0,0.0,0.0,-0.35,2.8,9.38,32
6.945201,-0.36,2.8,9.38,-0.3125,-0.0625,0.125,-34.0625,29.5625,-59.5,0.0,-2.0625,-16.625,0.989319,0.144836,0.018372,0.0,0.0,0.02,0.02,-0.35,2.8,9.38,32
6.956104,-0.35,2.83,9.41,-0.125,0.3125,0.0,-33.0,30.0,-59.5,0.0,-2.0625,-16.625,0.989319,0.144836,0.018372,0.0,0.0,-0.02,-0.01,-0.35,2.8,9.38,32
6.967007,-0.34,2.78,9.37,0.125,0.125,0.0625,-33.0,30.0,-59.5,0.0,-2.0625,-16.625,0.989319,0.144836,0.018372,0.0,0.0,0.0,-0.01,-0.35,2.8,9.38,32
6.97791,-0.35,2.8,9.39,-0.1875,0.0,0.0625,-33.0,30.0,-59.5,0.0,-2.0625,-16.625,0.989319,0.144836,0.018372,0.0,0.0,0.0,0.0,-0.35,2.8,9.38,32
6.988813,-0.35,2.81,9.38,0.0625,0.0,-0.0625,-33.0,30.0,-59.5,0.0,-2.0625,-16.625,0.989319,0.144836,0.018372,0.0,0.0,0.0,0.01,-0.35,2.8,9.38,32
6.999716,-0.35,2.8,9.4,-0.0625,0.125,-0.0625,-33.0,30.0,-59.5,0.0,-2.0625,-16.625,0.989319,0.144836,0.018372,0.0,0.0,0.0,0.01,-0.35,2.8,9.38,32
7.010619,-0.36,2.82,9.39,0.0,0.125,0.125,-33.375,29.5625,-60.75,0.0,-2.0625,-16.625,0.989319,0.144836,0.018372,0.0,0.0,0.0,-0.01,-0.35,2.8,9.38,32
7.021522,-0.34,2.8,9.37,-0.0625,0.0625,0.0625,-33.375,29.5625,-60.75,0.0,-2.0625,-16.625,0.989319,0.144836,0.018372,0.0,0.0,-0.01,0.0,-0.35,2.8,9.38,32
7.032425,-0.35,2.79,9.38,-0.125,0.125,0.0,-33.375,29.5625,-60.75,0.0,-2.0625,-16.625,0.989319,0.144836,0.018372,0.0,0.0,0.0,0.0,-0.35,2.8,9.38,32
7.043328,-0.34,2.81,9.38,-0.125,-0.125,0.125,-33.375,29.5625,-60.75,0.0,-2.0625,-16.625,0.989319,0.144836,0.018372,0.0,0.0,0.0,0.0,-0.35,2.8,9.38,32
7.054231,-0.35,2.8,9.38,-0.125,-0.25,0.0625,-32.25,30.75,-60.25,0.0,-2.0625,-16.625,0.989319,0.144836,0.018372,0.0,0.0,0.0,0.0,-0.35,2.8,9.38,32
7.065134,-0.34,2.82,9.4,0.0,-0.125,0.0,-32.25,30.75,-60.25,0.0,-2.0625,-16.625,0.989319,0.144836,0.018372,0.0,0.01,0.01,0.01,-0.35,2.8,9.38,32
7.076037,-0.35,2.8,9.39,0.1875,0.0625,0.0625,-32.25,30.75,-60.25,0.0,-2.0625,-16.625,0.989319,0.144836,0.018372,0.0,0.0,0.0,0.0,-0.35,2.8,9.38,32
7.08694,-0.34,2.8,9.39,0.0625,-0.0625,-0.0625,-32.25,30.75,-60.25,0.0,-2.0625,-16.625,0.989319,0.144836,0.018372,0.0,0.02,-0.01,0.01,-0.35,2.8,9.38,32
7.097843,-0.33,2.79,9.4,0.0625,0.1875,0.0625,-32.25,30.75,-60.25,0.0,-2.0625,-16.625,0.989319,0.144836,0.018372,0.0,0.02,-0.01,0.01,-0.35,2.8,9.38,32
7.108746,-0.35,2.79,9.4,-0.375,0.125,0.0,-30.375,29.25,-64.0,0.0,-2.0625,-16.625,0.989319,0.144836,0.018372,0.0,0.0,0.0,0.0,-0.35,2.8,9.38,32
7.119649,-0.35,2.81,9.39,-0.1875,0.125,-0.0625,-30.375,29.25,-64.0,0.0,-2.0625,-16.625,0.989319,0.144836,0.018372,0.0,-0.02,0.0,0.01,-0.35,2.8,9.38,32
7.130552,-0.37,2.8,9.4,-0.125,0.0,-0.0625,-30.375,29.25,-64.0,0.0,-2.0625,-16.625,0.989319,0.144836,0.018372,0.0,-0.01,0.02,0.01,-0.35,2.8,9.38,32
7.141455,-0.36,2.83,9.4,0.0,0.1875,0.125,-30.375,29.25,-64.0,0.0,-2.0625,-16.625,0.989319,0.144836,0.018372,0.0,0.0,0.01,0.0,-0.35,2.8,9.38,32
7.152358,-0.36,2.82,9.38,0.0625,0.0625,0.0,-30.375,28.875,-64.875,0.0,-2.0625,-16.625,0.989319,0.144836,0.018372,0.0,0.01,0.0,0.0,-0.35,2.8,9.38,32
7.163261,-0.33,2.8,9.39,-0.125,0.125,0.0,-30.375,28.875,-64.875,0.0,-2.0625,-16.625,0.989319,0.144836,0.018372,0.0,0.0,0.01,0.0,-0.35,2.8,9.38,32
7.174164,-0.34,2.81,9.38,-0.1875,0.0,0.0,-30.375,28.875,-64.875,0.0,-2.0625,-16.625,0.989319,0.144836,0.018372,0.0,0.01,0.0,0.0,-0.35,2.8,9.38,32
7.185067,-0.34,2.81,9.35,0.0,0.1875,-0.0625,-30.375,28.875,-64.875,0.0,-2.0625,-16.625,0.989319,0.144836,0.018372,0.0,0.0,-0.01,0.0,-0.35,2.8,9.38,32
7.19597,-0.35,2.79,9.38,0.0625,0.125,0.0,-30.375,28.875,-64.875,0.0,-2.0625,-16.625,0.989319,0.144836,0.018372,0.0,0.0,-0.01,0.0,-0.35,2.8,9.38,32
7.206873,-0.35,2.81,9.37,-0.125,-0.125,0.0625,-30.375,29.25,-64.0625,0.0,-2.0625,-16.625,0.989319,0.144836,0.018372,0.0,-0.01,0.01,0.0,-0.35,2.8,9.38,32
7.217776,-0.37,2.82,9.38,-0.1875,-0.0625,0.0,-30.375,29.25,-64.0625,0.0,-2.0625,-16.625,0.989319,0.144836,0.018372,0.0,0.01,0.0,-0.02,-0.35,2.8,9.38,32
7.228679,-0.34,2.81,9.36,0.0,0.0,0.0625,-30.375,29.25,-64.0625,0.0,-2.0625,-16.625,0.989319,0.144836,0.018372,0.0,-0.01,-0.01,0.0,-0.35,2.8,9.38,32
7.239582,-0.37,2.79,9.39,-0.1875,-0.125,0.0,-30.375,29.25,-64.0625,0.0,-2.0625,-16.625,0.989319,0.144836,0.018372,0.0,0.0,-0.01,0.0,-0.35,2.8,9.38,32
7.250485,-0.35,2.79,9.39,-0.0625,0.0625,-0.0625,-29.5625,30.0,-63.5625,0.0,-2.0625,-16.625,0.989319,0.144836,0.018372,0.0,-0.01,0.02,0.0,-0.35,2.8,9.38,32
7.261388,-0.35,2.81,9.38,0.0625,0.125,0.0625,-29.5625,30.0,-63.5625,0.0,-2.0625,-16.625,0.989319,0.144836,0.018372,0.0,0.0,0.0,0.0,-0.35,2.8,9.38,32
7.272291,-0.34,2.81,9.35,-0.1875,-0.0625,-0.125,-29.5625,30.0,-63.5625,0.0,-2.0625,-16.625,0.989319,0.144836,0.018372,0.0,0.0,0.0,0.0,-0.35,2.8,9.38,32
7.283194,-0.35,2.8,9.39,0.0,-0.25,0.0625,-29.5625,30.0,-63.5625,0.0,-2.0625,-16.625,0.989319,0.144836,0.018372,0.0,0.0,0.0,0.04,-0.35,2.8,9.38,32
7.294097,-0.34,2.81,9.43,0.0,-0.0625,0.0,-29.5625,30.0,-63.5625,0.0,-2.0625,-16.625,0.989319,0.144836,0.018372,0.0,0.0,0.0,0.04,-0.35,2.8,9.38,32
7.305,-0.35,2.79,9.38,-0.375,0.0625,0.0625,-30.375,29.5625,-66.0625,0.0,-2.0625,-16.625,0.989319,0.144836,0.018372,0.0,0.0,0.0,0.0,-0.35,2.8,9.38,32
7.315903,-0.35,2.8,9.39,-0.125,0.0,-0.0625,-30.375,29.5625,-66.0625,0.0,-2.0625,-16.625,0.989319,0.144836,0.018372,0.0,0.0,-0.01,0.0,-0.35,2.8,9.38,32
7.326806,-0.35,2.79,9.39,-0.25,0.0,-0.1875,-30.375,29.5625,-66.0625,0.0,-2.0625,-16.625,0.989319,0.144836,0.018372,0.0,0.0,0.01,0.02,-0.35,2.8,9.38,32
7.337709,-0.36,2.82,9.41,-0.1875,-0.0625,0.0,-30.375,29.5625,-66.0625,0.0,-2.0625,-16.625,0.989319,0.144836,0.018372,0.0,0.0,0.01,-0.01,-0.35,2.8,9.38,32
7.348612,-0.36,2.82,9.37,0.0,-0.125,0.0,-33.375,30.375,-61.5625,0.0,-2.0625,-16.625,0.989319,0.144836,0.018372,0.0,0.01,0.0,0.02,-0.35,2.8,9.38,32
7.359515,-0.37,2.8,9.38,0.125,-0.0625,0.125,-33.375,30.375,-61.5625,0.0,-2.0625,-16.625,0.989319,0.144836,0.018372,0.0,-0.01,0.0,0.0,-0.35,2.8,9.38,32
7.370418,-0.37,2.8,9.4,-0.0625,-0.0625,0.0,-33.375,30.375,-61.5625,0.0,-2.0625,-16.625,0.989319,0.144836,0.018372,0.0,0.0,0.0,0.0,-0.35,2.8,9.38,32
7.381321,-0.35,2.8,9.38,0.25,-0.0625,0.125,-33.375,30.375,-61.5625,0.0,-2.0625,-16.625,0.989319,0.144836,0.018372,0.0,0.0,0.0,0.02,-0.35,2.8,9.38,32
7.392224,-0.34,2.81,9.41,-0.0625,-0.0625,0.0,-33.375,30.375,-61.5625,0.0,-2.0625,-16.625,0.989319,0.144836,0.018372,0.0,0.0,0.0,0.02,-0.35,2.8,9.38,32
7.403127,-0.35,2.82,9.38,0.0,-0.125,0.0625,-31.875,30.75,-61.0625,0.0,-2.0625,-16.625,0.989319,0.144836,0.018372,0.0,0.0,-0.02,0.01,-0.35,2.8,9.38,32
7.41403,-0.35,2.78,9.4,-0.1875,0.125,0.0625,-31.875,30.75,-61.0625,0.0,-2.0625,-16.625,0.989319,0.144836,0.018372,0.0,0.01,0.0,0.0,-0.35,2.8,9.38,32
7.424933,-0.34,2.81,9.38,0.0,0.3125,-0.125,-31.875,30.75,-61.0625,0.0,-2.0625,-16.625,0.989319,0.144836,0.018372,0.0,0.01,0.02,-0.02,-0.35,2.8,9.38,32
7.435836,-0.34,2.83,9.36,0.0,0.0625,-0.125,-31.875,30.75,-61.0625,0.0,-2.0625,-16.625,0.989319,0.144836,0.018372,0.0,0.0,-0.01,0.0,-0.35,2.8,9.38,32
7.446739,-0.35,2.79,9.39,0.0,0.0625,0.125,-32.25,30.75,-62.75,0.0,-2.0625,-16.625,0.989319,0.144836,0.018372,0.0,0.0,0.0,0.0,-0.35,2.8,9.38,32
7.457642,-0.35,2.8,9.38,-0.1875,0.25,0.0625,-32.25,30.75,-62.75,0.0,-2.0625,-16.625,0.989319,0.144836,0.018372,0.0,0.0,0.0,0.0,-0.35,2.8,9.38,32
7.468544,-0.35,2.81,9.38,-0.125,0.25,-0.0625,-32.25,30.75,-62.75,0.0,-2.0625,-16.625,0.989319,0.144836,0.018372,0.0,0.0,0.0,0.0,-0.35,2.8,9.38,32
7.479447,-0.34,2.81,9.38,-0.1875,0.125,0.0,-32.25,30.75,-62.75,0.0,-2.0625,-16.625,0.989319,0.144836,0.018372,0.0,0.0,0.0,-0.02,-0.35,2.8,9.38,32
7.49035,-0.35,2.81,9.36,-0.0625,-0.0625,0.0,-32.25,30.75,-62.75,0.0,-2.0625,-16.625,0.989319,0.144836,0.018372,0.0,0.0,0.0,-0.02,-0.35,2.8,9.38,32
7.501253,-0.34,2.83,9.37,0.1875,0.1875,0.0,-30.375,28.875,-64.375,0.0,-2.0625,-16.625,0.989319,0.144836,0.018372,0.0,0.0,-0.01,0.0,-0.35,2.8,9.38,32
7.512156,-0.35,2.79,9.38,0.0,0.125,-0.0625,-30.375,28.875,-64.375,0.0,-2.0625,-16.625,0.989319,0.144836,0.018372,0.0,0.0,0.01,-0.02,-0.35,2.8,9.38,32
7.523059,-0.35,2.82,9.36,-0.125,0.125,0.0,-30.375,28.875,-64.375,0.0,-2.0625,-16.625,0.989319,0.144836,0.018372,0.0,0.0,-0.01,-0.01,-0.35,2.8,9.38,32
7.533962,-0.34,2.79,9.37,-0.125,0.0625,0.125,-30.375,28.875,-64.375,0.0,-2.0625,-16.625,0.989319,0.144836,0.018372,0.0,0.0,-0.01,0.03,-0.35,2.8,9.38,32
7.544865,-0.34,2.79,9.42,0.0,0.125,-0.125,-32.25,29.5625,-61.5625,0.0,-2.0625,-16.625,0.989319,0.144836,0.018372,0.0,0.0,0.0,0.0,-0.35,2.8,9.38,32
7.555768,-0.36,2.8,9.38,0.1875,0.375,0.125,-32.25,29.5625,-61.5625,0.0,-2.0625,-16.625,0.989319,0.144836,0.018372,0.0,0.0,0.0,0.0,-0.35,2.8,9.38,32
7.566671,-0.35,2.81,9.38,0.1875,0.3125,-0.0625,-32.25,29.5625,-61.5625,0.0,-2.0625,-16.625,0.989319,0.144836,0.018372,0.0,0.0,0.0,0.0,-0.35,2.8,9.38,32
7.577574,-0.35,2.81,9.38,-0.1875,-0.0625,-0.125,-32.25,29.5625,-61.5625,0.0,-2.0625,-16.625,0.989319,0.144836,0.018372,0.0,0.0,0.01,0.02,-0.35,2.8,9.38,32
7.588477,-0.36,2.82,9.4,-0.375,-0.0625,0.0,-32.25,29.5625,-61.5625,0.0,-2.0625,-16.625,0.989319,0.144836,0.018372,0.0,0.0,0.0,-0.01,-0.35,2.8,9.38,32
7.59938,-0.34,2.81,9.37,-0.125,0.1875,0.0,-32.5625,30.75,-59.875,0.0,-2.0625,-16.625,0.989319,0.144836,0.018372,0.0,0.01,-0.02,0.0,-0.35,2.8,9.38,32
7.610283,-0.34,2.78,9.38,-0.125,0.1875,0.0,-32.5625,30.75,-59.875,0.0,-2.0625,-16.625,0.989319,0.144836,0.018372,0.0,0.0,0.02,-0.01,-0.35,2.8,9.38,32
7.621186,-0.34,2.83,9.37,-0.1875,0.1875,-0.0625,-32.5625,30.75,-59.875,0.0,-2.0625,-16.625,0.989319,0.144836,0.018372,0.0,0.01,0.0,-0.02,-0.35,2.8,9.38,32
7.632089,-0.34,2.81,9.36,-0.125,0.1875,0.125,-32.5625,30.75,-59.875,0.0,-2.0625,-16.625,0.989319,0.144836,0.018372,0.0,0.0,0.0,0.0,-0.35,2.8,9.38,32
7.642992,-0.36,2.81,9.39,-0.0625,0.0,0.125,-32.5625,30.75,-59.875,0.0,-2.0625,-16.625,0.989319,0.144836,0.018372,0.0,0.0,0.0,0.01,-0.35,2.8,9.38,32
7.653895,-0.36,2.81,9.4,-0.1875,0.125,-0.125,-34.5,30.75,-60.75,0.0,-2.0625,-16.625,0.989319,0.144836,0.018372,0.0,0.0,0.0,-0.01,-0.35,2.8,9.38,32
7.664798,-0.35,2.8,9.37,-0.125,0.0,0.0,-34.5,30.75,-60.75,0.0,-2.0625,-16.625,0.989319,0.144836,0.018372,0.0,0.0,0.0,0.0,-0.35,2.8,9.38,32
7.675701,-0.35,2.81,9.38,0.0625,0.125,0.0625,-34.5,30.75,-60.75,0.0,-2.0625,-16.625,0.989319,0.144836,0.018372,0.0,0.0,0.0,-0.02,-0.35,2.8,9.38,32
7.686604,-0.35,2.8,9.36,-0.125,0.25,0.0625,-34.5,30.75,-60.75,0.0,-2.0625,-16.625,0.989319,0.144836,0.018372,0.0,0.0,-0.02,-0.02,-0.35,2.8,9.38,32
7.697507,-0.35,2.78,9.36,0.0625,0.125,0.0625,-34.5,30.75,-60.75,0.0,-2.0625,-16.625,0.989319,0.144836,0.018372,0.0,0.0,0.02,0.0,-0.35,2.8,9.38,32
7.70841,-0.35,2.83,9.38,0.125,0.1875,0.0,-31.0625,30.0,-61.0625,0.0,-2.0625,-16.625,0.989319,0.144836,0.018372,0.0,0.0,0.0,-0.01,-0.35,2.8,9.38,32
7.719313,-0.35,2.8,9.37,-0.125,0.0,0.0625,-31.0625,30.0,-61.0625,0.0,-2.0625,-16.625,0.989319,0.144836,0.018372,0.0,0.0,0.0,-0.02,-0.35,2.8,9.38,32
7.730216,-0.34,2.81,9.36,-0.0625,-0.125,0.125,-31.0625,30.0,-61.0625,0.0,-2.0625,-16.625,0.989319,0.144836,0.018372,0.0,0.0,-0.01,-0.01,-0.35,2.8,9.38,32
7.741119,-0.35,2.79,9.37,0.125,0.1875,0.125,-31.0625,30.0,-61.0625,0.0,-2.0625,-16.625,0.989319,0.144836,0.018372,0.0,0.0,0.01,-0.02,-0.35,2.8,9.38,32
7.752022,-0.34,2.82,9.36,-0.125,-0.1875,0.125,-31.0625,30.0,-61.0625,0.0,-2.0625,-16.625,0.989319,0.144836,0.018372,0.0,0.0,0.02,-0.03,-0.35,2.8,9.38,32
7.762925,-0.34,2.83,9.35,0.125,0.125,0.0,-32.5625,31.5,-60.25,0.0,-2.0625,-16.625,0.989319,0.144836,0.018372,0.0,0.0,0.0,0.01,-0.35,2.8,9.38,32
7.773828,-0.34,2.8,9.4,0.0625,0.3125,0.0625,-32.5625,31.5,-60.25,0.0,-2.0625,-16.625,0.989319,0.144836,0.018372,0.0,0.01,0.01,0.0,-0.35,2.8,9.38,32
7.784731,-0.34,2.82,9.38,0.0625,0.1875,0.0625,-32.5625,31.5,-60.25,0.0,-2.0625,-16.625,0.989319,0.144836,0.018372,0.0,0.0,-0.01,-0.01,-0.35,2.8,9.38,32
7.795634,-0.36,2.79,9.37,-0.3125,0.0625,-0.0625,-32.5625,31.5,-60.25,0.0,-2.0625,-16.625,0.989319,0.144836,0.018372,0.0,-0.01,0.01,0.0,-0.35,2.8,9.38,32
7.806537,-0.36,2.82,9.38,-0.0625,0.125,0.0625,-32.5625,31.5,-60.25,0.0,-2.0625,-16.625,0.989319,0.144836,0.018372,0.0,0.0,0.03,0.01,-0.35,2.8,9.38,32
7.81744,-0.35,2.83,9.4,-0.25,0.0,0.0,-33.75,30.75,-61.0625,0.0,-2.0625,-16.625,0.989319,0.144836,0.018372,0.0,0.0,0.01,0.0,-0.35,2.8,9.38,32
7.828343,-0.35,2.81,9.42,-0.375,0.0,-0.125,-33.75,30.75,-61.0625,0.0,-2.0625,-16.625,0.989319,0.144836,0.018372,0.0,0.0,0.0,0.03,-0.35,2.8,9.38,32
7.839246,-0.34,2.81,9.37,-0.1875,0.0625,-0.0625,-33.75,30.75,-61.0625,0.0,-2.0625,-16.625,0.989319,0.144836,0.018372,0.0,0.0,0.0,0.0,-0.35,2.8,9.38,32
7.850149,-0.35,2.8,9.38,-0.25,-0.375,-0.0625,-33.75,30.75,-61.0625,0.0,-2.0625,-16.625,0.989319,0.144836,0.018372,0.0,-0.01,0.0,0.01,-0.35,2.8,9.38,32
7.861052,-0.36,2.81,9.4,-0.25,-0.125,-0.125,-33.75,30.75,-61.0625,0.0,-2.0625,-16.625,0.989319,0.144836,0.018372,0.0,-0.01,0.0,0.01,-0.35,2.8,9.38,32
7.871955,-0.35,2.78,9.38,-0.125,-0.125,-0.0625,-31.875,31.0625,-60.75,0.0,-2.0625,-16.625,0.989319,0.144836,0.018372,0.0,0.0,-0.02,0.0,-0.35,2.8,9.38,32
7.882858,-0.35,2.8,9.38,-0.1875,-0.1875,0.0,-31.875,31.0625,-60.75,0.0,-2.0625,-16.625,0.989319,0.144836,0.018372,0.0,0.0,0.0,0.0,-0.35,2.8,9.38,32
7.893761,-0.35,2.81,9.37,-0.1875,0.0,0.0625,-31.875,31.0625,-60.75,0.0,-2.0625,-16.625,0.989319,0.144836,0.018372,0.0,0.0,0.02,0.0,-0.35,2.8,9.38,32
7.904664,-0.34,2.83,9.38,-0.0625,0.1875,0.0,-31.875,31.0625,-60.75,0.0,-2.0625,-16.625,0.989319,0.144836,0.018372,0.0,0.0,0.02,0.0,-0.35,2.8,9.38,32
7.915567,-0.36,2.8,9.4,0.0,-0.0625,0.0,-32.5625,30.375,-60.75,0.0,-2.0625,-16.625,0.989319,0.144836,0.018372,0.0,0.01,0.0,0.0,-0.35,2.8,9.38,32
7.92647,-0.33,2.81,9.38,-0.125,-0.125,-0.0625,-32.5625,30.375,-60.75,0.0,-2.0625,-16.625,0.989319,0.144836,0.018372,0.0,0.0,0.01,-0.02,-0.35,2.8,9.38,32
7.937373,-0.35,2.82,9.36,0.0,-0.25,-0.0625,-32.5625,30.375,-60.75,0.0,-2.0625,-16.625,0.989319,0.144836,0.018372,0.0,0.0,-0.01,0.01,-0.35,2.8,9.38,32
7.948276,-0.35,2.79,9.4,-0.375,-0.1875,0.125,-32.5625,30.375,-60.75,0.0,-2.0625,-16.625,0.989319,0.144836,0.018372,0.0,0.0,0.0,0.0,-0.35,2.8,9.38,32
7.959179,-0.35,2.8,9.39,0.0,0.0625,0.0,-32.5625,30.0,-60.25,0.0,-2.0625,-16.625,0.989319,0.144836,0.018372,0.0,0.0,0.0,0.0,-0.35,2.8,9.38,32
7.970082,-0.35,2.8,9.39,0.0625,-0.0625,0.125,-32.5625,30.0,-60.25,0.0,-2.0625,-16.625,0.989319,0.144836,0.018372,0.0,0.0,0.01,-0.02,-0.35,2.8,9.38,32
7.980985,-0.36,2.82,9.36,-0.25,-0.0625,0.0,-32.5625,30.0,-60.25,0.0,-2.0625,-16.625,0.989319,0.144836,0.018372,0.0,0.01,0.01,0.0,-0.35,2.8,9.38,32
7.991888,-0.33,2.82,9.38,-0.125,0.125,-0.0625,-32.5625,30.0,-60.25,0.0,-2.0625,-16.625,0.989319,0.144836,0.018372,0.0,0.0,-0.01,0.01,-0.35,2.8,9.38,32
8.002791,-0.35,2.79,9.4,0.125,0.0625,-0.0625,-32.5625,30.0,-60.25,0.0,-2.0625,-16.625,0.989319,0.144836,0.018372,0.0,0.0,0.0,0.02,-0.35,2.8,9.38,32
8.013694,-0.34,2.8,9.4,-0.0625,-0.25,0.0625,-33.375,30.75,-61.5625,0.0,-2.0625,-16.625,0.989319,0.144836,0.018372,0.0,0.0,0.0,-0.03,-0.35,2.8,9.38,32
8.024597,-0.35,2.78,9.4,-0.125,0.125,-0.0625,-33.375,30.75,-61.5625,0.0,-2.0625,-16.625,0.989319,0.144836,0.018372,0.0,0.0,-0.02,0.02,-0.35,2.8,9.38,32
8.0355,-0.34,2.81,9.37,-0.25,0.0,0.0,-33.375,30.75,-61.5625,0.0,-2.0625,-16.625,0.989319,0.144836,0.018372,0.0,0.0,0.0,0.0,-0.35,2.8,9.38,32
8.046403,-0.35,2.8,9.38,0.0625,-0.125,0.0,-33.375,30.75,-61.5625,0.0,-2.0625,-16.625,0.989319,0.144836,0.018372,0.0,0.0,0.0,-0.02,-0.35,2.8,9.38,32
8.057306,-0.34,2.8,9.36,-0.125,-0.1875,0.0,-33.375,30.75,-61.5625,0.0,-2.0625,-16.625,0.989319,0.144836,0.018372,0.0,0.0,0.0,-0.02,-0.35,2.8,9.38,32
8.068209,-0.36,2.83,9.39,-0.25,-0.0625,0.0,-31.875,29.5625,-61.0625,0.0,-2.0625,-16.625,0.989319,0.144836,0.018372,0.0,0.0,0.02,0.0,-0.35,2.8,9.38,32
8.079112,-0.35,2.83,9.38,-0.1875,0.1875,-0.0625,-31.875,29.5625,-61.0625,0.0,-2.0625,-16.625,0.989319,0.144836,0.018372,0.0,0.0,-0.01,-0.03,-0.35,2.8,9.38,32
8.090015,-0.36,2.81,9.37,-0.0625,0.1875,0.0,-31.875,29.5625,-61.0625,0.0,-2.0625,-16.625,0.989319,0.144836,0.018372,0.0,0.0,0.0,-0.01,-0.35,2.8,9.38,32
8.100918,-0.33,2.82,9.39,0.0,0.1875,0.125,-31.875,29.5625,-61.0625,0.0,-2.0625,-16.625,0.989319,0.144836,0.018372,0.0,0.02,0.01,0.0,-0.35,2.8,9.38,32
8.111821,-0.35,2.82,9.4,-0.125,0.0,-0.0625,-29.5625,28.5,-64.0,0.0,-2.0625,-16.625,0.989319,0.144836,0.018372,0.0,0.0,0.0,-0.01,-0.35,2.8,9.38,32
8.122724,-0.34,2.81,9.37,0.0625,0.0625,0.0,-29.5625,28.5,-64.0,0.0,-2.0625,-16.625,0.989319,0.144836,0.018372,0.0,0.0,0.0,-0.02,-0.35,2.8,9.38,32
8.133627,-0.35,2.81,9.36,-0.125,0.0,-0.0625,-29.5625,28.5,-64.0,0.0,-2.0625,-16.625,0.989319,0.144836,0.018372,0.0,0.0,0.0,-0.03,-0.35,2.8,9.38,32
8.14453,-0.35,2.81,9.35,-0.0625,0.0625,0.0625,-29.5625,28.5,-64.0,0.0,-2.0625,-16.625,0.989319,0.144836,0.018372,0.0,0.0,0.0,0.0,-0.35,2.8,9.38,32
8.155433,-0.36,2.8,9.38,-0.0625,-0.0625,0.0,-33.375,31.0625,-61.0625,0.0,-2.0625,-16.625,0.989319,0.144836,0.018372,0.0,0.02,-0.01,0.0,-0.35,2.8,9.38,32
8.166336,-0.35,2.8,9.37,-0.125,0.0625,0.0,-33.375,31.0625,-61.0625,0.0,-2.0625,-16.625,0.989319,0.144836,0.018372,0.0,0.0,0.0,-0.01,-0.35,2.8,9.38,32
8.177238,-0.35,2.8,9.35,-0.0625,0.125,-0.125,-33.375,31.0625,-61.0625,0.0,-2.0625,-16.625,0.989319,0.144836,0.018372,0.0,-0.01,0.01,0.0,-0.35,2.8,9.38,32
8.188141,-0.36,2.82,9.39,-0.125,0.125,-0.1875,-33.375,31.0625,-61.0625,0.0,-2.0625,-16.625,0.989319,0.144836,0.018372,0.0,0.01,0.0,0.01,-0.35,2.8,9.38,32
8.199044,-0.34,2.8,9.4,0.0625,0.3125,0.0,-33.375,31.0625,-61.0625,0.0,-2.0625,-16.625,0.989319,0.144836,0.018372,0.0,0.01,0.0,0.01,-0.35,2.8,9.38,32
8.209947,-0.34,2.82,9.39,-0.0625,0.0625,0.125,-33.0,30.75,-61.0625,0.0,-2.0625,-16.625,0.989319,0.144836,0.018372,0.0,-0.01,-0.01,-0.01,-0.35,2.8,9.38,32
8.22085,-0.37,2.79,9.37,-0.125,0.0,0.0,-33.0,30.75,-61.0625,0.0,-2.0625,-16.625,0.989319,0.144836,0.018372,0.0,0.02,-0.01,0.0,-0.35,2.8,9.38,32
8.231753,-0.33,2.79,9.38,-0.25,-0.0625,0.0,-33.0,30.75,-61.0625,0.0,-2.0625,-16.625,0.989319,0.144836,0.018372,0.0,0.0,0.0,0.0,-0.35,2.8,9.38,32
8.242656,-0.35,2.8,9.39,-0.25,0.0625,0.0,-33.0,30.75,-61.0625,0.0,-2.0625,-16.625,0.989319,0.144836,0.018372,0.0,0.0,0.0,0.0,-0.35,2.8,9.38,32
8.253559,-0.34,2.8,9.39,-0.0625,-0.25,0.0,-31.875,30.75,-61.875,0.0,-2.0625,-16.625,0.989319,0.144836,0.018372,0.0,-0.01,0.0,0.0,-0.35,2.8,9.38,32
8.264462,-0.34,2.8,9.39,-0.25,-0.0625,0.0625,-31.875,30.75,-61.875,0.0,-2.0625,-16.625,0.989319,0.144836,0.018372,0.0,0.01,0.0,0.0,-0.35,2.8,9.38,32
8.275365,-0.36,2.83,9.34,-0.125,-0.0625,0.0,-31.875,30.75,-61.875,0.0,-2.0625,-16.625,0.989319,0.144836,0.018372,0.0,-0.01,0.02,-0.04,-0.35,2.8,9.38,32
8.286268,-0.37,2.8,9.38,-0.125,0.125,0.0,-31.875,30.75,-61.875,0.0,-2.0625,-16.625,0.989319,0.144836,0.018372,0.0,0.0,0.0,-0.02,-0.35,2.8,9.38,32
8.297171,-0.36,2.81,9.36,-0.0625,0.0,0.0625,-31.875,30.75,-61.875,0.0,-2.0625,-16.625,0.989319,0.144836,0.018372,0.0,0.0,0.0,-0.02,-0.35,2.8,9.38,32
8.308074,-0.36,2.79,9.39,-0.1875,0.0625,0.0,-30.375,29.5625,-64.375,0.0,-2.0625,-16.625,0.989319,0.144836,0.018372,0.0,0.0,0.0,0.01,-0.35,2.8,9.38,32
8.318977,-0.35,2.81,9.4,-0.25,0.0,0.0,-30.375,29.5625,-64.375,0.0,-2.0625,-16.625,0.989319,0.144836,0.018372,0.0,0.01,0.02,0.0,-0.35,2.8,9.38,32
8.32988,-0.33,2.83,9.38,-0.125,-0.125,0.0,-30.375,29.5625,-64.375,0.0,-2.0625,-16.625,0.989319,0.144836,0.018372,0.0,0.0,0.01,0.02,-0.35,2.8,9.38,32
8.340783,-0.36,2.82,9.4,0.0,0.125,0.0625,-30.375,29.5625,-64.375,0.0,-2.0625,-16.625,0.989319,0.144836,0.018372,0.0,0.0,0.0,0.0,-0.35,2.8,9.38,32
8.351686,-0.36,2.8,9.39,0.125,0.25,0.0,-29.25,29.25,-64.375,0.0,-2.0625,-16.625,0.989319,0.144836,0.018372,0.0,0.0,0.0,0.01,-0.35,2.8,9.38,32
8.362589,-0.35,2.8,9.4,0.0,0.0625,-0.125,-29.25,29.25,-64.375,0.0,-2.0625,-16.625,0.989319,0.144836,0.018372,0.0,0.0,-0.01,0.01,-0.35,2.8,9.38,32
8.373492,-0.36,2.79,9.4,-0.1875,0.0625,0.0,-29.25,29.25,-64.375,0.0,-2.0625,-16.625,0.989319,0.144836,0.018372,0.0,-0.01,0.0,-0.01,-0.35,2.8,9.38,32
8.384395,-0.36,2.8,9.37,-0.0625,0.0625,0.0,-29.25,29.25,-64.375,0.0,-2.0625,-16.625,0.989319,0.144836,0.018372,0.0,0.0,-0.01,0.0,-0.35,2.8,9.38,32
8.395298,-0.35,2.79,9.39,-0.25,-0.25,0.125,-29.25,29.25,-64.375,0.0,-2.0625,-16.625,0.989319,0.144836,0.018372,0.0,0.0,0.0,0.0,-0.35,2.8,9.38,32
8.406201,-0.36,2.8,9.39,0.0625,0.3125,0.125,-31.0625,28.875,-65.25,0.0,-2.0625,-16.625,0.989319,0.144836,0.018372,0.0,0.02,-0.01,0.0,-0.35,2.8,9.38,32
8.417104,-0.34,2.8,9.4,-0.0625,0.1875,0.0625,-31.0625,28.875,-65.25,0.0,-2.0625,-16.625,0.989319,0.144836,0.018372,0.0,0.01,0.0,0.01,-0.35,2.8,9.38,32
8.428007,-0.35,2.81,9.39,-0.125,0.3125,0.0625,-31.0625,28.875,-65.25,0.0,-2.0625,-16.625,0.989319,0.144836,0.018372,0.0,0.0,0.0,0.01,-0.35,2.8,9.38,32
8.43891,-0.34,2.81,9.4,-0.0625,0.0625,-0.125,-31.0625,28.875,-65.25,0.0,-2.0625,-16.625,0.989319,0.144836,0.018372,0.0,0.01,0.0,0.0,-0.35,2.8,9.38,32
8.449813,-0.34,2.81,9.38,-0.125,0.125,0.0625,-31.0625,28.875,-65.25,0.0,-2.0625,-16.625,0.989319,0.144836,0.018372,0.0,0.01,0.0,0.0,-0.35,2.8,9.38,32
8.460716,-0.34,2.81,9.38,-0.1875,0.125,-0.0625,-31.0625,30.375,-64.375,0.0,-2.0625,-16.625,0.989319,0.144836,0.018372,0.0,0.0,-0.01,0.01,-0.35,2.8,9.38,32
8.471619,-0.36,2.79,9.4,-0.1875,-0.0625,0.0,-31.0625,30.375,-64.375,0.0,-2.0625,-16.625,0.989319,0.144836,0.018372,0.0,0.0,0.0,-0.03,-0.35,2.8,9.38,32
8.482522,-0.34,2.81,9.35,-0.125,-0.125,0.0,-31.0625,30.375,-64.375,0.0,-2.0625,-16.625,0.989319,0.144836,0.018372,0.0,0.0,0.01,-0.01,-0.35,2.8,9.38,32
8.493425,-0.35,2.82,9.37,-0.25,-0.1875,0.0625,-31.0625,30.375,-64.375,0.0,-2.0625,-16.625,0.989319,0.144836,0.018372,0.0,0.0,0.0,0.0,-0.35,2.8,9.38,32
8.504328,-0.35,2.81,9.38,0.125,0.0625,-0.0625,-30.375,29.5625,-63.5625,0.0,-2.0625,-16.625,0.989319,0.144836,0.018372,0.0,0.0,0.0,-0.02,-0.35,2.8,9.38,32
8.515231,-0.35,2.8,9.36,-0.125,-0.125,0.0625,-30.375,29.5625,-63.5625,0.0,-2.0625,-16.625,0.989319,0.144836,0.018372,0.0,0.0,-0.01,0.0,-0.35,2.8,9.38,32
8.526134,-0.35,2.79,9.39,-0.3125,-0.0625,0.0,-30.375,29.5625,-63.5625,0.0,-2.0625,-16.625,0.989319,0.144836,0.018372,0.0,-0.01,0.0,0.0,-0.35,2.8,9.38,32
8.537037,-0.36,2.81,9.39,-0.25,0.125,0.0,-30.375,29.5625,-63.5625,0.0,-2.0625,-16.625,0.989319,0.144836,0.018372,0.0,0.01,0.0,-0.02,-0.35,2.8,9.38,32
8.54794,-0.34,2.8,9.36,0.0625,0.0,0.0625,-30.375,29.5625,-63.5625,0.0,-2.0625,-16.625,0.989319,0.144836,0.018372,0.0,-0.01,0.0,-0.01,-0.35,2.8,9.38,32
8.558843,-0.36,2.8,9.37,-0.25,0.0,0.125,-30.75,28.0625,-63.25,0.0,-2.0625,-16.625,0.989319,0.144836,0.018372,0.0,-0.01,0.02,0.0,-0.35,2.8,9.38,32
8.569746,-0.36,2.81,9.37,-0.125,0.0,-0.0625,-30.75,28.0625,-63.25,0.0,-2.0625,-16.625,0.989319,0.144836,0.018372,0.0,0.0,0.0,-0.01,-0.35,2.8,9.38,32
8.580649,-0.34,2.81,9.4,-0.1875,0.0625,0.0625,-30.75,28.0625,-63.25,0.0,-2.0625,-16.625,0.989319,0.144836,0.018372,0.0,0.0,0.0,-0.01,-0.35,2.8,9.38,32
8.591552,-0.35,2.8,9.37,-0.125,-0.0625,0.0625,-30.75,28.0625,-63.25,0.0,-2.0625,-16.625,0.989319,0.144836,0.018372,0.0,0.0,-0.01,0.0,-0.35,2.8,9.38,32
8.602455,-0.34,2.79,9.39,-0.25,0.0,0.0,-30.75,28.0625,-63.25,0.0,-2.0625,-16.625,0.989319,0.144836,0.018372,0.0,0.0,-0.01,0.0,-0.35,2.8,9.38,32
8.613358,-0.34,2.79,9.39,0.0,0.0625,0.125,-33.0,30.0,-59.875,0.0,-2.0625,-16.625,0.989319,0.144836,0.018372,0.0,0.01,0.0,-0.01,-0.35,2.8,9.38,32
8.624261,-0.34,2.8,9.37,-0.0625,-0.125,-0.0625,-33.0,30.0,-59.875,0.0,-2.0625,-16.625,0.989319,0.144836,0.018372,0.0,0.0,0.0,0.0,-0.35,2.8,9.38,32
8.635164,-0.35,2.8,9.39,-0.0625,-0.0625,-0.0625,-33.0,30.0,-59.875,0.0,-2.0625,-16.625,0.989319,0.144836,0.018372,0.0,0.0,0.0,0.01,-0.35,2.8,9.38,32
8.646067,-0.34,2.8,9.4,-0.0625,0.375,0.0,-33.0,30.0,-59.875,0.0,-2.0625,-16.625,0.989319,0.144836,0.018372,0.0,0.0,0.0,0.0,-0.35,2.8,9.38,32
8.65697,-0.36,2.8,9.38,-0.125,0.125,-0.0625,-33.75,30.375,-60.25,0.0,-2.0625,-16.625,0.989319,0.144836,0.018372,0.0,0.0,0.0,-0.02,-0.35,2.8,9.38,32
8.667873,-0.35,2.8,9.36,-0.3125,0.0,0.0,-33.75,30.375,-60.25,0.0,-2.0625,-16.625,0.989319,0.144836,0.018372,0.0,-0.02,0.0,-0.02,-0.35,2.8,9.38,32
8.678776,-0.35,2.82,9.4,-0.1875,0.125,0.0,-33.75,30.375,-60.25,0.0,-2.0625,-16.625,0.989319,0.144836,0.018372,0.0,0.0,0.01,0.01,-0.35,2.8,9.38,32
8.689679,-0.35,2.82,9.4,-0.1875,0.0,-0.1875,-33.75,30.375,-60.25,0.0,-2.0625,-16.625,0.989319,0.144836,0.018372,0.0,0.0,0.01,0.01,-0.35,2.8,9.38,32
8.700582,-0.36,2.81,9.37,0.0,-0.375,0.0,-33.75,30.375,-60.25,0.0,-2.0625,-16.625,0.989319,0.144836,0.018372,0.0,0.0,0.0,-0.01,-0.35,2.8,9.38,32
8.711485,-0.35,2.8,9.38,-0.125,0.0625,0.0,-30.375,29.5625,-65.25,0.0,-2.0625,-16.625,0.989319,0.144836,0.018372,0.0,0.0,0.0,0.0,-0.35,2.8,9.38,32
8.722388,-0.36,2.8,9.39,0.0,0.1875,-0.125,-30.375,29.5625,-65.25,0.0,-2.0625,-16.625,0.989319,0.144836,0.018372,0.0,-0.01,0.0,0.0,-0.35,2.8,9.38,32
8.733291,-0.36,2.8,9.38,-0.3125,0.125,-0.0625,-30.375,29.5625,-65.25,0.0,-2.0625,-16.625,0.989319,0.144836,0.018372,0.0,0.0,-0.01,-0.01,-0.35,2.8,9.38,32
