t,acc_X,acc_Y,acc_Z,gyr_X,gyr_Y,gyr_Z,mag_X,mag_Y,mag_Z,eul_heading,eul_roll,eul_pitch,quat_w,quat_x,quat_y,quat_z,lia_X,lia_Y,lia_Z,grv_X,grv_Y,grv_Z,temp
0.0,-0.34,2.85,9.3,0.0,-0.1875,0.1875,-38.375,31.6875,-60.375,360.0,-2.0625,-16.875,0.988953,0.147156,0.018311,0.0,0.0,0.0,-0.07,-0.35,2.85,9.37,26
0.01091,-0.35,2.86,9.3,0.1875,-0.1875,0.25,-38.375,31.6875,-60.375,0.0,-2.0625,-16.875,0.988953,0.147156,0.018311,0.0,0.0,0.0,0.0,-0.35,2.85,9.37,26
0.021821,-0.35,2.85,9.36,-0.125,-0.3125,0.125,-38.375,31.6875,-60.375,0.0,-2.0625,-16.875,0.988953,0.147156,0.018311,0.0,0.0,0.0,-0.04,-0.35,2.85,9.37,26
0.032731,-0.34,2.86,9.32,0.0,-0.1875,0.125,-38.0625,31.25,-57.5625,360.0,-2.0625,-16.875,0.988953,0.147156,0.018311,0.0,0.0,0.0,-0.03,-0.35,2.85,9.37,26
0.043641,-0.34,2.84,9.34,-0.1875,-0.125,0.0625,-38.0625,31.25,-57.5625,360.0,-2.0625,-16.875,0.988953,0.147156,0.018311,0.0,0.0,0.0,-0.05,-0.35,2.85,9.37,26
0.054552,-0.35,2.85,9.32,-0.1875,-0.1875,0.0625,-38.0625,31.25,-57.5625,360.0,-2.0625,-16.875,0.988953,0.147156,0.018311,0.0,0.0,0.0,-0.01,-0.35,2.85,9.37,26
0.065462,-0.35,2.86,9.35,0.0625,-0.125,0.1875,-38.0625,31.25,-57.5625,360.0,-2.0625,-16.875,0.988953,0.147156,0.018311,0.0,0.0,0.0,-0.03,-0.35,2.85,9.37,26
0.076372,-0.35,2.84,9.33,-0.125,-0.125,0.25,-36.1875,30.875,-59.5625,0.0,-2.0625,-16.875,0.988953,0.147156,0.018311,0.0,0.0,0.02,-0.04,-0.35,2.85,9.37,26
0.087283,-0.35,2.85,9.34,-0.125,-0.125,0.1875,-36.1875,30.875,-59.5625,0.0,-2.0625,-16.875,0.988953,0.147156,0.018311,0.0,0.0,0.0,-0.02,-0.35,2.85,9.37,26
0.098193,-0.34,2.85,9.33,-0.125,0.0,0.125,-36.1875,30.875,-59.5625,0.0,-2.0625,-16.875,0.988953,0.147156,0.018311,0.0,0.0,-0.01,-0.03,-0.35,2.85,9.37,26
0.109103,-0.34,2.83,9.33,-0.25,-0.375,0.25,-36.1875,30.875,-59.5625,360.0,-2.0625,-16.875,0.988953,0.147156,0.018311,0.0,0.0,0.01,-0.06,-0.35,2.85,9.37,26
0.120014,-0.34,2.87,9.31,-0.1875,-0.25,0.1875,-36.1875,30.875,-59.5625,360.0,-2.0625,-16.875,0.988953,0.147156,0.018311,0.0,0.0,0.0,-0.02,-0.35,2.85,9.37,26
0.130924,-0.35,2.84,9.35,0.0,-0.1875,0.1875,-35.375,29.75,-60.375,360.0,-2.0625,-16.875,0.988953,0.147156,0.018311,0.0,0.0,0.01,-0.06,-0.35,2.85,9.37,26
0.141834,-0.35,2.86,9.31,-0.1875,-0.1875,0.1875,-35.375,29.75,-60.375,360.0,-2.0625,-16.875,0.988953,0.147156,0.018311,0.0,0.0,0.0,-0.02,-0.35,2.85,9.37,26
0.152745,-0.34,2.85,9.34,-0.125,0.0,0.125,-35.375,29.75,-60.375,360.0,-2.0625,-16.875,0.988953,0.147156,0.018311,0.0,0.0,0.0,-0.03,-0.35,2.85,9.37,26
0.163655,-0.35,2.84,9.34,-0.125,-0.0625,0.3125,-35.375,29.75,-60.375,360.0,-2.0625,-16.875,0.988953,0.147156,0.018311,0.0,0.0,0.02,-0.03,-0.35,2.85,9.37,26
0.174565,-0.35,2.87,9.33,-0.1875,-0.25,0.1875,-35.0625,30.1875,-60.375,360.0,-2.0625,-16.875,0.988953,0.147156,0.018311,0.0,0.0,0.0,-0.01,-0.35,2.85,9.37,26
0.185476,-0.34,2.85,9.36,0.0,0.0,0.125,-35.0625,30.1875,-60.375,360.0,-2.0625,-16.875,0.988953,0.147156,0.018311,0.0,0.0,0.01,-0.04,-0.35,2.85,9.37,26
0.196386,-0.35,2.86,9.32,-0.0625,-0.5,0.125,-35.0625,30.1875,-60.375,360.0,-2.0625,-16.875,0.988953,0.147156,0.018311,0.0,0.0,0.02,-0.03,-0.35,2.85,9.37,26
0.207296,-0.36,2.87,9.34,0.1875,-0.375,0.3125,-35.0625,30.1875,-60.375,360.0,-2.0625,-16.875,0.988953,0.147156,0.018311,0.0,0.0,0.0,-0.02,-0.35,2.85,9.37,26
0.218207,-0.34,2.86,9.34,-0.0625,-0.3125,0.1875,-35.0625,30.1875,-60.375,360.0,-2.0625,-16.875,0.988953,0.147156,0.018311,0.0,0.0,0.01,-0.04,-0.35,2.85,9.37,26
0.229117,-0.34,2.86,9.32,-0.0625,-0.25,0.25,-33.5625,30.5625,-60.0,359.9375,-2.0625,-16.875,0.988953,0.147156,0.018311,0.0,0.0,0.01,-0.04,-0.35,2.85,9.37,26
0.240027,-0.34,2.84,9.36,-0.0625,-0.1875,0.3125,-33.5625,30.5625,-60.0,359.9375,-2.0625,-16.875,0.988953,0.147156,0.018311,0.0,0.0,0.0,0.0,-0.35,2.85,9.37,26
0.250938,-0.36,2.86,9.33,0.0,-0.3125,0.1875,-33.5625,30.5625,-60.0,360.0,-2.0625,-16.875,0.988953,0.147156,0.018311,0.0,-0.01,0.0,-0.02,-0.35,2.85,9.37,26
0.261848,-0.37,2.86,9.34,-0.0625,-0.3125,0.25,-33.5625,30.5625,-60.0,360.0,-2.0625,-16.875,0.988953,0.147156,0.018311,0.0,0.01,0.01,-0.01,-0.35,2.85,9.37,26
0.272758,-0.33,2.87,9.35,-0.3125,-0.0625,0.125,-33.5625,30.5625,-60.0,360.0,-2.0625,-16.875,0.988953,0.147156,0.018311,0.0,0.01,0.01,-0.01,-0.35,2.85,9.37,26
0.283669,-0.33,2.86,9.36,-0.125,-0.1875,0.1875,-34.25,30.875,-62.0,359.9375,-2.0625,-16.875,0.988953,0.147156,0.018311,0.0,0.0,0.01,-0.05,-0.35,2.85,9.37,26
0.294579,-0.35,2.86,9.32,-0.1875,-0.125,0.3125,-34.25,30.875,-62.0,359.9375,-2.0625,-16.875,0.988953,0.147156,0.018311,0.0,0.01,0.01,-0.06,-0.35,2.85,9.37,26
0.305489,-0.33,2.87,9.31,0.0625,-0.125,0.1875,-34.25,30.875,-62.0,359.9375,-2.0625,-16.875,0.988953,0.147156,0.018311,0.0,0.0,0.01,-0.02,-0.35,2.85,9.37,26
0.3164,-0.34,2.86,9.35,-0.0625,-0.25,0.25,-34.25,30.875,-62.0,359.9375,-2.0625,-16.875,0.988953,0.147156,0.018311,0.0,-0.01,0.02,-0.05,-0.35,2.85,9.37,26
0.32731,-0.36,2.87,9.32,-0.0625,-0.375,0.375,-34.25,30.875,-62.0,359.9375,-2.0625,-16.875,0.988953,0.147156,0.018311,0.0,-0.01,0.02,-0.05,-0.35,2.85,9.37,26
0.33822,-0.36,2.87,9.32,-0.1875,-0.5625,0.25,-33.875,30.1875,-60.75,359.9375,-2.0625,-16.875,0.988953,0.147156,0.018311,0.0,0.0,0.01,-0.03,-0.35,2.85,9.37,26
0.349131,-0.34,2.87,9.33,0.3125,0.125,0.1875,-33.875,30.1875,-60.75,359.9375,-2.0625,-16.875,0.988953,0.147156,0.018311,0.0,0.0,0.0,-0.07,-0.35,2.85,9.37,26
0.360041,-0.35,2.85,9.3,-0.0625,-0.375,0.1875,-33.875,30.1875,-60.75,359.9375,-2.0625,-16.875,0.988953,0.147156,0.018311,0.0,0.0,0.01,-0.04,-0.35,2.85,9.37,26
0.370951,-0.35,2.87,9.33,-0.1875,-0.375,0.1875,-33.875,30.1875,-60.75,359.9375,-2.0625,-16.875,0.988953,0.147156,0.018311,0.0,0.0,0.0,0.0,-0.35,2.85,9.37,26
0.381861,-0.34,2.86,9.36,0.0,-0.25,0.25,-34.6875,30.1875,-58.75,359.9375,-2.0625,-16.875,0.988953,0.147156,0.018311,0.0,0.0,0.0,-0.02,-0.35,2.85,9.37,26
0.392772,-0.35,2.86,9.34,0.0625,-0.0625,0.25,-34.6875,30.1875,-58.75,359.9375,-2.0625,-16.875,0.988953,0.147156,0.018311,0.0,0.0,0.02,-0.02,-0.35,2.85,9.37,26
0.403682,-0.35,2.88,9.35,0.0,-0.1875,0.125,-34.6875,30.1875,-58.75,359.9375,-2.0625,-16.875,0.988953,0.147156,0.018311,0.0,0.01,0.02,-0.05,-0.35,2.85,9.37,26
0.414592,-0.33,2.87,9.32,-0.125,-0.375,0.1875,-34.6875,30.1875,-58.75,359.9375,-2.0625,-16.875,0.988953,0.147156,0.018311,0.0,-0.01,-0.01,-0.02,-0.35,2.85,9.37,26
0.425503,-0.34,2.85,9.34,0.0,-0.4375,0.25,-34.6875,30.1875,-58.75,359.9375,-2.0625,-16.875,0.988953,0.147156,0.018311,0.0,0.0,0.0,-0.03,-0.35,2.85,9.37,26
0.436413,-0.34,2.84,9.32,-0.1875,-0.3125,0.125,-33.875,30.5625,-60.375,359.9375,-2.0625,-16.875,0.988953,0.147156,0.018311,0.0,0.01,0.0,-0.02,-0.35,2.85,9.37,26
0.447323,-0.33,2.84,9.34,-0.3125,0.0,0.1875,-33.875,30.5625,-60.375,359.9375,-2.0625,-16.875,0.988953,0.147156,0.018311,0.0,-0.01,0.0,-0.03,-0.35,2.85,9.37,26
0.458234,-0.36,2.85,9.33,-0.0625,-0.25,0.125,-33.875,30.5625,-60.375,359.9375,-2.0625,-16.875,0.988953,0.147156,0.018311,0.0,0.0,0.02,-0.04,-0.35,2.85,9.37,26
0.469144,-0.36,2.87,9.32,0.0625,-0.25,0.25,-33.875,30.5625,-60.375,359.9375,-2.0625,-16.875,0.988953,0.147156,0.018311,0.0,0.0,-0.02,-0.04,-0.35,2.85,9.37,26
0.480054,-0.35,2.82,9.33,0.0625,0.0625,0.125,-33.875,30.5625,-60.375,359.9375,-2.0625,-16.875,0.988953,0.147156,0.018311,0.0,0.0,-0.02,-0.04,-0.35,2.85,9.37,26
0.490965,-0.34,2.88,9.33,-0.25,-0.375,0.125,-34.25,30.875,-60.375,359.9375,-2.0625,-16.875,0.988953,0.147156,0.018311,0.0,0.0,0.0,-0.04,-0.35,2.85,9.37,26
0.501875,-0.35,2.84,9.33,-0.1875,-0.3125,0.1875,-34.25,30.875,-60.375,359.9375,-2.0625,-16.875,0.988953,0.147156,0.018311,0.0,0.0,0.0,-0.04,-0.35,2.85,9.37,26
0.512785,-0.36,2.85,9.36,0.0,-0.25,0.25,-34.25,30.875,-60.375,359.9375,-2.0625,-16.875,0.988953,0.147156,0.018311,0.0,0.0,0.0,-0.01,-0.35,2.85,9.37,26
0.523696,-0.34,2.86,9.34,-0.375,-0.25,0.1875,-34.25,30.875,-60.375,359.9375,-2.0625,-16.875,0.988953,0.147156,0.018311,0.0,0.0,0.0,-0.03,-0.35,2.85,9.37,26
0.534606,-0.35,2.85,9.33,-0.0625,0.0,0.25,-37.6875,31.6875,-55.25,359.9375,-2.0625,-16.875,0.988953,0.147156,0.018311,0.0,0.0,0.0,-0.04,-0.35,2.85,9.37,26
0.545516,-0.35,2.86,9.32,-0.25,-0.0625,0.1875,-37.6875,31.6875,-55.25,359.9375,-2.0625,-16.875,0.988953,0.147156,0.018311,0.0,0.0,0.0,-0.03,-0.35,2.85,9.37,26
0.556427,-0.35,2.85,9.34,-0.1875,-0.25,0.1875,-37.6875,31.6875,-55.25,359.9375,-2.0625,-16.875,0.988953,0.147156,0.018311,0.0,0.0,0.0,-0.02,-0.35,2.85,9.37,26
0.567337,-0.34,2.85,9.34,-0.0625,-0.3125,0.1875,-37.6875,31.6875,-55.25,359.9375,-2.0625,-16.875,0.988953,0.147217,0.018311,0.0,0.0,0.02,-0.02,-0.35,2.85,9.37,26
0.578247,-0.34,2.87,9.34,-0.25,-0.1875,0.25,-37.6875,31.6875,-55.25,359.9375,-2.0625,-16.875,0.988953,0.147217,0.018311,0.0,0.0,0.02,-0.02,-0.35,2.85,9.37,26
0.589158,-0.34,2.85,9.34,-0.125,-0.4375,0.0625,-37.6875,30.875,-56.0625,359.9375,-2.0625,-16.875,0.988953,0.147217,0.018311,0.0,0.0,0.01,-0.04,-0.35,2.85,9.37,26
0.600068,-0.35,2.86,9.32,-0.125,-0.375,0.25,-37.6875,30.875,-56.0625,359.9375,-2.0625,-16.875,0.988953,0.147217,0.018311,0.0,0.0,-0.01,-0.02,-0.35,2.85,9.37,26
0.610978,-0.36,2.83,9.34,-0.25,-0.25,0.25,-37.6875,30.875,-56.0625,359.9375,-2.0625,-16.875,0.988953,0.147217,0.018311,0.0,0.0,-0.01,-0.03,-0.35,2.85,9.37,26
0.621889,-0.35,2.83,9.33,0.0,-0.1875,0.125,-37.6875,30.875,-56.0625,359.9375,-2.0625,-16.875,0.988953,0.147217,0.018311,0.0,0.0,0.0,-0.04,-0.35,2.85,9.37,26
0.632799,-0.35,2.84,9.32,0.0625,-0.25,0.1875,-36.5625,30.875,-56.875,359.9375,-2.0625,-16.875,0.988953,0.147217,0.018311,0.0,0.0,0.02,-0.03,-0.35,2.85,9.37,26
0.643709,-0.35,2.85,9.32,-0.1875,-0.25,0.1875,-36.5625,30.875,-56.875,359.9375,-2.0625,-16.875,0.988953,0.147217,0.018311,0.0,0.0,0.0,-0.04,-0.35,2.85,9.37,26
0.65462,-0.34,2.83,9.29,-0.125,-0.5,0.1875,-36.5625,30.875,-56.875,359.9375,-2.0625,-16.875,0.988953,0.147217,0.018311,0.0,0.0,0.01,-0.04,-0.35,2.85,9.37,26
0.66553,-0.35,2.87,9.33,0.0,-0.25,0.25,-36.5625,30.875,-56.875,359.9375,-2.0625,-16.875,0.988953,0.147217,0.018311,0.0,0.0,-0.02,-0.03,-0.35,2.85,9.37,26
0.67644,-0.35,2.83,9.34,-0.125,-0.25,0.125,-36.5625,30.875,-56.875,359.9375,-2.0625,-16.875,0.988953,0.147217,0.018311,0.0,0.0,-0.02,-0.03,-0.35,2.85,9.37,26
0.687351,-0.36,2.86,9.35,-0.125,-0.25,0.1875,-34.6875,30.25,-60.375,359.9375,-2.0625,-16.875,0.988953,0.147217,0.018311,0.0,0.0,0.0,-0.03,-0.35,2.85,9.37,26
0.698261,-0.34,2.86,9.33,-0.3125,-0.0625,0.1875,-34.6875,30.25,-60.375,359.9375,-2.0625,-16.875,0.988953,0.147217,0.018311,0.0,0.01,-0.01,0.0,-0.35,2.85,9.37,26
0.709171,-0.33,2.84,9.36,-0.125,0.0625,0.0625,-34.6875,30.25,-60.375,359.9375,-2.0625,-16.875,0.988953,0.147217,0.018311,0.0,0.0,0.0,-0.03,-0.35,2.85,9.37,26
0.720082,-0.35,2.85,9.34,-0.0625,-0.4375,0.1875,-34.6875,30.25,-60.375,359.9375,-2.0625,-16.875,0.988953,0.147217,0.018311,0.0,0.0,0.02,-0.05,-0.35,2.85,9.37,26
0.730992,-0.34,2.88,9.32,-0.0625,-0.3125,0.0625,-33.5625,28.75,-59.5625,359.9375,-2.0625,-16.875,0.988953,0.147217,0.018311,0.0,0.0,0.0,-0.03,-0.35,2.85,9.37,26
0.741902,-0.35,2.84,9.32,-0.0625,-0.3125,0.3125,-33.5625,28.75,-59.5625,359.9375,-2.0625,-16.875,0.988953,0.147217,0.018311,0.0,0.0,0.0,-0.05,-0.35,2.85,9.37,26
0.752813,-0.35,2.85,9.3,-0.0625,-0.3125,0.1875,-33.5625,28.75,-59.5625,359.9375,-2.0625,-16.875,0.988953,0.147217,0.018311,0.0,0.0,-0.01,-0.04,-0.35,2.85,9.37,26
0.763723,-0.36,2.84,9.33,-0.1875,-0.125,0.125,-33.5625,28.75,-59.5625,359.9375,-2.0625,-16.875,0.988953,0.147217,0.018311,0.0,0.0,0.0,-0.02,-0.35,2.85,9.37,26
0.774633,-0.34,2.85,9.34,-0.1875,-0.25,0.1875,-33.5625,28.75,-59.5625,359.9375,-2.0625,-16.875,0.988953,0.147217,0.018311,0.0,0.0,0.0,-0.02,-0.35,2.85,9.37,26
0.785544,-0.35,2.85,9.35,-0.3125,-0.125,0.0625,-33.875,29.5,-60.375,359.9375,-2.0625,-16.875,0.988953,0.147217,0.018311,0.0,0.0,-0.02,-0.06,-0.35,2.85,9.37,26
0.796454,-0.34,2.83,9.3,0.0,-0.1875,0.25,-33.875,29.5,-60.375,359.9375,-2.0625,-16.875,0.988953,0.147217,0.018311,0.0,0.01,0.0,-0.06,-0.35,2.85,9.37,26
0.807364,-0.33,2.85,9.3,-0.0625,-0.5,0.1875,-33.875,29.5,-60.375,359.9375,-2.0625,-16.875,0.988953,0.147217,0.018311,0.0,0.0,0.0,-0.03,-0.35,2.85,9.37,26
0.818275,-0.35,2.85,9.33,-0.125,-0.1875,0.25,-33.875,29.5,-60.375,359.9375,-2.0625,-16.875,0.988953,0.147217,0.018311,0.0,0.01,0.01,-0.05,-0.35,2.85,9.37,26
0.829185,-0.33,2.86,9.31,0.0,-0.0625,0.125,-33.875,29.875,-59.25,359.9375,-2.0625,-16.875,0.988953,0.147217,0.018311,0.0,0.0,0.0,-0.04,-0.35,2.85,9.37,26
0.840095,-0.35,2.84,9.33,0.0,-0.0625,0.125,-33.875,29.875,-59.25,359.9375,-2.0625,-16.875,0.988953,0.147217,0.018311,0.0,0.0,0.0,-0.03,-0.35,2.85,9.37,26
0.851006,-0.34,2.85,9.34,0.0625,-0.3125,0.25,-33.875,29.875,-59.25,359.9375,-2.0625,-16.875,0.988953,0.147217,0.018311,0.0,0.0,0.0,-0.04,-0.35,2.85,9.37,26
0.861916,-0.34,2.85,9.33,-0.0625,-0.25,0.3125,-33.875,29.875,-59.25,359.9375,-2.0625,-16.875,0.988953,0.147217,0.018311,0.0,0.0,0.01,-0.02,-0.35,2.85,9.37,26
0.872826,-0.34,2.86,9.35,-0.0625,-0.1875,0.25,-33.875,29.875,-59.25,359.9375,-2.0625,-16.875,0.988953,0.147217,0.018311,0.0,0.0,0.0,-0.05,-0.35,2.85,9.37,26
0.883737,-0.35,2.86,9.32,-0.125,-0.125,0.1875,-34.6875,29.875,-60.875,359.9375,-2.0625,-16.875,0.988953,0.147217,0.018311,0.0,0.0,0.0,-0.03,-0.35,2.85,9.37,26
0.894647,-0.35,2.86,9.35,-0.1875,-0.3125,0.1875,-34.6875,29.875,-60.875,359.9375,-2.0625,-16.875,0.988953,0.147217,0.018311,0.0,0.0,0.01,-0.01,-0.35,2.85,9.37,26
0.905557,-0.34,2.85,9.33,0.0625,-0.0625,0.25,-34.6875,29.875,-60.875,359.9375,-2.0625,-16.875,0.988953,0.147217,0.018311,0.0,0.0,0.0,-0.06,-0.35,2.85,9.37,26
0.916468,-0.34,2.85,9.3,-0.0625,-0.3125,0.125,-34.6875,29.875,-60.875,359.9375,-2.0625,-16.9375,0.988953,0.147217,0.018311,0.0,0.0,0.0,-0.02,-0.35,2.85,9.37,26
0.927378,-0.35,2.85,9.35,-0.0625,-0.0625,0.3125,-35.375,30.5625,-60.5,359.9375,-2.0625,-16.9375,0.988953,0.147217,0.018311,0.0,0.0,0.0,-0.05,-0.35,2.85,9.37,26
0.938288,-0.34,2.88,9.33,-0.125,-0.25,0.125,-35.375,30.5625,-60.5,359.9375,-2.0625,-16.9375,0.988953,0.147217,0.018311,0.0,0.0,0.02,-0.04,-0.35,2.85,9.37,26
0.949199,-0.37,2.86,9.32,0.0,-0.3125,0.3125,-35.375,30.5625,-60.5,359.9375,-2.0625,-16.9375,0.988953,0.147217,0.018311,0.0,0.0,0.0,-0.02,-0.35,2.85,9.37,26
0.960109,-0.35,2.84,9.34,-0.125,-0.1875,0.3125,-35.375,30.5625,-60.5,359.9375,-2.0625,-16.9375,0.988953,0.147217,0.018311,0.0,0.0,-0.01,-0.04,-0.35,2.85,9.37,26
0.971019,-0.35,2.83,9.32,0.0,-0.25,0.25,-35.375,30.5625,-60.5,359.9375,-2.0625,-16.9375,0.988953,0.147217,0.018311,0.0,0.0,-0.01,-0.04,-0.35,2.85,9.37,26
0.98193,-0.35,2.85,9.35,0.0625,-0.1875,0.125,-35.75,29.875,-55.6875,359.9375,-2.0625,-16.9375,0.988953,0.147217,0.018311,0.0,0.0,0.0,-0.02,-0.35,2.85,9.37,26
0.99284,-0.35,2.84,9.35,-0.0625,-0.125,0.1875,-35.75,29.875,-55.6875,359.9375,-2.0625,-16.9375,0.988953,0.147217,0.018311,0.0,0.01,0.0,-0.02,-0.35,2.85,9.37,26
1.00375,-0.33,2.85,9.34,-0.3125,-0.5,0.25,-35.75,29.875,-55.6875,359.9375,-2.0625,-16.9375,0.988953,0.147217,0.018311,0.0,0.0,0.0,-0.03,-0.35,2.85,9.37,26
1.014661,-0.35,2.85,9.34,-0.125,-0.4375,0.1875,-35.75,29.875,-55.6875,359.9375,-2.0625,-16.9375,0.988953,0.147217,0.018311,0.0,0.01,0.0,-0.05,-0.35,2.85,9.37,26
1.025571,-0.33,2.84,9.32,-0.25,-0.0625,0.1875,-38.75,31.6875,-54.875,359.9375,-2.0625,-16.9375,0.988953,0.147217,0.018311,0.0,-0.02,0.02,-0.01,-0.35,2.85,9.37,26
1.036481,-0.35,2.84,9.36,-0.25,0.0625,0.25,-38.75,31.6875,-54.875,359.9375,-2.0625,-16.9375,0.988953,0.147217,0.018311,0.0,0.0,-0.01,-0.01,-0.35,2.85,9.37,26
1.047392,-0.35,2.88,9.34,-0.125,-0.0625,0.125,-38.75,31.6875,-54.875,359.9375,-2.0625,-16.9375,0.988953,0.147217,0.018311,0.0,0.0,0.0,-0.04,-0.35,2.85,9.37,26
1.058302,-0.35,2.84,9.32,-0.125,-0.1875,0.125,-38.75,31.6875,-54.875,359.9375,-2.0625,-16.9375,0.988953,0.147217,0.018311,0.0,0.0,0.0,-0.01,-0.35,2.85,9.37,26
1.069212,-0.35,2.85,9.36,-0.375,-0.375,0.25,-38.75,31.6875,-54.875,359.9375,-2.0625,-16.9375,0.988953,0.147217,0.018311,0.0,0.0,0.0,-0.01,-0.35,2.85,9.37,26
1.080123,-0.36,2.85,9.31,-0.25,-0.25,0.25,-36.5625,30.875,-56.0625,359.9375,-2.0625,-16.9375,0.988953,0.147217,0.018311,0.0,0.01,0.01,-0.03,-0.35,2.85,9.37,26
1.091033,-0.33,2.86,9.34,-0.0625,-0.0625,0.1875,-36.5625,30.875,-56.0625,359.9375,-2.0625,-16.9375,0.988953,0.147217,0.018311,0.0,0.0,0.01,-0.02,-0.35,2.85,9.37,26
1.101943,-0.34,2.87,9.35,0.125,-0.0625,0.25,-36.5625,30.875,-56.0625,359.9375,-2.0625,-16.9375,0.988953,0.147217,0.018311,0.0,0.0,0.0,-0.01,-0.35,2.85,9.37,26
1.112854,-0.34,2.85,9.36,0.0625,-0.125,0.1875,-36.5625,30.875,-56.0625,359.9375,-2.0625,-16.9375,0.988953,0.147217,0.018311,0.0,0.0,0.01,-0.04,-0.35,2.85,9.37,26
1.123764,-0.34,2.86,9.33,0.0,-0.0625,0.25,-37.6875,31.6875,-54.875,359.9375,-2.0625,-16.9375,0.988953,0.147217,0.018311,0.0,0.0,-0.01,0.0,-0.35,2.85,9.37,26
1.134674,-0.35,2.84,9.36,-0.125,-0.375,0.125,-37.6875,31.6875,-54.875,359.9375,-2.0625,-16.9375,0.988953,0.147217,0.018311,0.0,0.0,0.01,-0.02,-0.35,2.85,9.37,26
1.145584,-0.35,2.87,9.35,-0.125,-0.5,0.125,-37.6875,31.6875,-54.875,359.9375,-2.0625,-16.9375,0.988953,0.147217,0.018311,0.0,0.0,-0.01,-0.04,-0.35,2.85,9.37,26
1.156495,-0.34,2.84,9.33,-0.125,-0.375,0.0625,-37.6875,31.6875,-54.875,359.9375,-2.0625,-16.9375,0.988953,0.147217,0.018311,0.0,0.0,-0.01,-0.05,-0.35,2.85,9.37,26
1.167405,-0.35,2.83,9.32,-0.25,-0.125,0.1875,-37.6875,31.6875,-54.875,359.9375,-2.0625,-16.9375,0.988953,0.147217,0.018311,0.0,0.0,0.02,-0.06,-0.35,2.85,9.37,26
1.178315,-0.34,2.87,9.3,-0.0625,-0.25,0.1875,-35.0625,29.875,-61.25,359.9375,-2.0625,-16.9375,0.988953,0.147217,0.018311,0.0,0.0,0.0,-0.02,-0.35,2.85,9.37,26
1.189226,-0.34,2.85,9.34,-0.0625,0.0,0.1875,-35.0625,29.875,-61.25,359.9375,-2.0625,-16.9375,0.988953,0.147217,0.018311,0.0,0.0,0.0,-0.02,-0.35,2.85,9.37,26
1.200136,-0.33,2.85,9.32,0.0,-0.1875,0.25,-35.0625,29.875,-61.25,359.9375,-2.0625,-16.9375,0.988953,0.147217,0.018311,0.0,0.01,0.02,-0.04,-0.35,2.85,9.37,26
1.211046,-0.33,2.87,9.32,-0.125,-0.1875,0.25,-35.0625,29.875,-61.25,359.9375,-2.0625,-16.9375,0.988953,0.147217,0.018311,0.0,0.0,0.0,-0.01,-0.35,2.85,9.37,26
1.221957,-0.36,2.85,9.35,-0.3125,-0.125,0.3125,-35.0625,29.875,-61.25,359.9375,-2.0625,-16.9375,0.988953,0.147217,0.018311,0.0,0.0,0.0,-0.01,-0.35,2.85,9.37,26
1.232867,-0.35,2.86,9.35,-0.375,-0.375,0.25,-32.375,30.5625,-60.875,359.9375,-2.0625,-16.9375,0.988953,0.147217,0.018311,0.0,0.0,-0.01,-0.01,-0.35,2.85,9.37,26
1.243777,-0.35,2.84,9.36,-0.25,-0.4375,0.25,-32.375,30.5625,-60.875,359.9375,-2.0625,-16.9375,0.988953,0.147217,0.018311,0.0,0.0,0.0,-0.04,-0.35,2.85,9.37,26
1.254688,-0.34,2.85,9.32,-0.25,-0.375,0.25,-32.375,30.5625,-60.875,359.9375,-2.0625,-16.9375,0.988953,0.147217,0.018311,0.0,0.0,0.0,-0.02,-0.35,2.85,9.37,26
1.265598,-0.35,2.84,9.35,0.125,-0.25,0.3125,-32.375,30.5625,-60.875,359.9375,-2.0625,-16.9375,0.988953,0.147217,0.018311,0.0,0.0,-0.01,-0.01,-0.35,2.85,9.37,26
1.276508,-0.35,2.83,9.36,-0.0625,0.0,0.3125,-34.6875,30.25,-59.75,359.9375,-2.0625,-16.9375,0.988953,0.147217,0.018311,0.0,0.01,0.0,-0.02,-0.35,2.85,9.37,26
1.287419,-0.33,2.85,9.35,-0.1875,-0.4375,0.25,-34.6875,30.25,-59.75,359.9375,-2.0625,-16.9375,0.988953,0.147217,0.018311,0.0,0.0,0.0,-0.03,-0.35,2.85,9.37,26
1.298329,-0.34,2.85,9.34,-0.0625,-0.375,0.125,-34.6875,30.25,-59.75,359.9375,-2.0625,-16.9375,0.988953,0.147217,0.018311,0.0,0.0,0.01,-0.02,-0.35,2.85,9.37,26
1.309239,-0.35,2.86,9.34,-0.1875,-0.375,0.1875,-34.6875,30.25,-59.75,359.9375,-2.0625,-16.9375,0.988953,0.147217,0.018311,0.0,0.0,0.0,-0.03,-0.35,2.85,9.37,26
1.32015,-0.34,2.85,9.33,0.0,-0.3125,0.1875,-34.6875,30.25,-59.75,359.9375,-2.0625,-16.9375,0.988953,0.147217,0.018311,0.0,0.0,0.0,-0.03,-0.35,2.85,9.37,26
1.33106,-0.36,2.84,9.36,-0.0625,-0.1875,0.25,-34.6875,29.875,-59.25,359.9375,-2.0625,-16.9375,0.988953,0.147217,0.018311,0.0,0.0,0.0,0.0,-0.35,2.85,9.37,26
1.34197,-0.34,2.85,9.36,-0.25,-0.1875,0.1875,-34.6875,29.875,-59.25,359.9375,-2.0625,-16.9375,0.988953,0.147217,0.018311,0.0,0.0,0.0,-0.02,-0.35,2.85,9.37,26
1.352881,-0.34,2.84,9.35,-0.0625,-0.25,0.25,-34.6875,29.875,-59.25,359.9375,-2.0625,-16.9375,0.988953,0.147217,0.018311,0.0,0.0,0.0,-0.03,-0.35,2.85,9.37,26
1.363791,-0.35,2.85,9.34,-0.125,-0.25,0.1875,-34.6875,29.875,-59.25,359.9375,-2.0625,-16.9375,0.988953,0.147217,0.018311,0.0,0.0,-0.01,-0.04,-0.35,2.85,9.37,26
1.374701,-0.35,2.83,9.33,-0.1875,-0.4375,0.25,-34.6875,29.875,-59.25,359.9375,-2.0625,-16.9375,0.988953,0.147217,0.018311,0.0,0.0,-0.01,-0.04,-0.35,2.85,9.37,26
1.385612,-0.35,2.86,9.37,-0.25,-0.25,0.25,-33.875,29.5,-60.0625,359.9375,-2.0625,-16.9375,0.988953,0.147217,0.018311,0.0,0.0,0.0,-0.02,-0.35,2.85,9.37,26
1.396522,-0.35,2.85,9.35,-0.125,-0.4375,0.25,-33.875,29.5,-60.0625,359.9375,-2.0625,-16.9375,0.988953,0.147217,0.018311,0.0,0.0,0.01,0.0,-0.35,2.85,9.37,26
1.407432,-0.35,2.86,9.38,-0.1875,-0.25,0.125,-33.875,29.5,-60.0625,359.9375,-2.0625,-16.9375,0.988953,0.147217,0.018311,0.0,0.0,0.01,-0.03,-0.35,2.85,9.37,26
1.418343,-0.36,2.86,9.34,0.0625,-0.1875,0.1875,-33.875,29.5,-60.0625,359.9375,-2.0625,-16.9375,0.988953,0.147217,0.018311,0.0,0.0,0.02,-0.05,-0.35,2.85,9.37,26
1.429253,-0.34,2.87,9.32,0.0,-0.1875,0.1875,-38.0625,31.6875,-55.25,359.9375,-2.0625,-16.9375,0.988953,0.147217,0.018311,0.0,0.0,0.0,-0.05,-0.35,2.85,9.37,26
1.440163,-0.34,2.84,9.34,0.0625,-0.4375,0.3125,-38.0625,31.6875,-55.25,359.9375,-2.0625,-16.9375,0.988953,0.147217,0.018311,0.0,0.0,0.0,-0.02,-0.35,2.85,9.37,26
1.451074,-0.34,2.83,9.33,-0.125,-0.3125,0.3125,-38.0625,31.6875,-55.25,359.9375,-2.0625,-16.9375,0.988953,0.147217,0.018311,0.0,0.0,0.0,-0.05,-0.35,2.85,9.37,26
1.461984,-0.34,2.86,9.31,-0.1875,-0.4375,0.375,-38.0625,31.6875,-55.25,359.9375,-2.0625,-16.9375,0.988953,0.147217,0.018311,0.0,0.0,-0.01,-0.01,-0.35,2.85,9.37,26
1.472894,-0.35,2.83,9.36,-0.1875,-0.5625,0.1875,-38.0625,31.6875,-55.25,359.9375,-2.0625,-16.9375,0.988953,0.147217,0.018311,0.0,0.0,-0.01,-0.01,-0.35,2.85,9.37,26
1.483805,-0.35,2.91,9.35,0.0625,-0.1875,0.1875,-36.5625,31.375,-55.75,359.9375,-2.0625,-16.9375,0.988953,0.147217,0.018311,0.0,0.01,-0.01,-0.01,-0.35,2.85,9.37,26
1.494715,-0.33,2.84,9.35,0.0,-0.25,0.1875,-36.5625,31.375,-55.75,359.9375,-2.0625,-16.9375,0.988953,0.147217,0.018311,0.0,0.0,0.01,-0.03,-0.35,2.85,9.37,26
1.505625,-0.34,2.86,9.34,-0.125,-0.1875,0.1875,-36.5625,31.375,-55.75,359.9375,-2.0625,-16.9375,0.988953,0.147217,0.018311,0.0,0.0,0.0,-0.03,-0.35,2.85,9.37,26
1.516536,-0.36,2.86,9.33,-0.125,-0.1875,0.125,-36.5625,31.375,-55.75,359.9375,-2.0625,-16.9375,0.988953,0.147217,0.018311,0.0,0.0,0.0,-0.02,-0.35,2.85,9.37,26
1.527446,-0.34,2.85,9.35,0.0,-0.1875,0.125,-36.875,31.375,-56.0625,359.9375,-2.0625,-16.9375,0.988953,0.147217,0.018311,0.0,0.0,0.0,0.0,-0.35,2.85,9.37,26
1.538356,-0.36,2.86,9.36,0.0625,-0.1875,0.25,-36.875,31.375,-56.0625,359.9375,-2.0625,-16.9375,0.988953,0.147217,0.018311,0.0,0.0,0.01,-0.03,-0.35,2.85,9.37,26
1.549267,-0.35,2.86,9.34,-0.1875,-0.25,0.1875,-36.875,31.375,-56.0625,359.9375,-2.0625,-16.9375,0.988953,0.147217,0.018311,0.0,0.0,0.02,-0.05,-0.35,2.85,9.37,26
1.560177,-0.34,2.87,9.31,-0.1875,-0.3125,0.1875,-36.875,31.375,-56.0625,359.9375,-2.0625,-16.9375,0.988953,0.147217,0.018311,0.0,0.0,0.03,-0.02,-0.35,2.85,9.37,26
1.571087,-0.34,2.88,9.35,0.0625,-0.3125,0.1875,-36.875,31.375,-56.0625,359.9375,-2.0625,-16.9375,0.988953,0.147217,0.018311,0.0,0.0,0.0,-0.04,-0.35,2.85,9.37,26
1.581998,-0.35,2.85,9.33,0.0,-0.0625,0.25,-37.25,31.6875,-55.75,359.9375,-2.0625,-16.9375,0.988953,0.147217,0.018311,0.0,0.0,0.01,-0.02,-0.35,2.85,9.37,26
1.592908,-0.35,2.86,9.35,0.0,-0.3125,0.1875,-37.25,31.6875,-55.75,359.9375,-2.0625,-16.9375,0.988953,0.147217,0.018311,0.0,0.01,0.0,0.0,-0.35,2.85,9.37,26
1.603818,-0.33,2.85,9.36,-0.25,-0.3125,0.3125,-37.25,31.6875,-55.75,359.9375,-2.0625,-16.9375,0.988953,0.147217,0.018311,0.0,0.0,0.0,-0.02,-0.35,2.85,9.37,26
1.614729,-0.36,2.86,9.35,0.0625,-0.125,0.1875,-37.25,31.6875,-55.75,359.9375,-2.0625,-16.9375,0.988953,0.147217,0.018311,0.0,0.0,0.0,-0.01,-0.35,2.85,9.37,26
1.625639,-0.34,2.85,9.35,-0.125,-0.1875,0.1875,-37.25,31.6875,-55.75,359.9375,-2.0625,-16.9375,0.988953,0.147217,0.018311,0.0,0.02,0.0,-0.02,-0.35,2.85,9.37,26
1.636549,-0.33,2.86,9.34,0.1875,-0.3125,0.25,-36.5625,32.0625,-56.5,359.9375,-2.0625,-16.9375,0.988953,0.147217,0.018311,0.0,0.0,0.01,0.0,-0.35,2.85,9.37,26
1.64746,-0.35,2.86,9.34,0.0,-0.3125,0.125,-36.5625,32.0625,-56.5,359.9375,-2.0625,-16.9375,0.988953,0.147217,0.018311,0.0,0.0,0.0,-0.03,-0.35,2.85,9.37,26
1.65837,-0.34,2.86,9.33,-0.4375,-0.5625,0.1875,-36.5625,32.0625,-56.5,359.9375,-2.0625,-16.9375,0.988953,0.147217,0.018311,0.0,0.0,-0.01,-0.02,-0.35,2.85,9.37,26
1.66928,-0.35,2.83,9.35,-0.25,-0.375,0.125,-36.5625,32.0625,-56.5,359.9375,-2.0625,-16.9375,0.988953,0.147217,0.018311,0.0,0.0,0.01,-0.03,-0.35,2.85,9.37,26
1.680191,-0.35,2.86,9.33,-0.1875,-0.125,0.1875,-36.5625,32.0625,-56.5,359.9375,-2.0625,-16.9375,0.988953,0.147217,0.018311,0.0,0.0,0.01,-0.03,-0.35,2.85,9.37,26
1.691101,-0.34,2.85,9.31,-0.1875,-0.375,0.125,-36.1875,31.6875,-54.875,359.9375,-2.0625,-16.9375,0.988953,0.147217,0.018311,0.0,0.0,-0.01,0.01,-0.35,2.85,9.37,26
1.702011,-0.34,2.83,9.38,-0.0625,-0.375,0.25,-36.1875,31.6875,-54.875,359.9375,-2.0625,-16.9375,0.988953,0.147217,0.018311,0.0,0.0,0.0,-0.03,-0.35,2.85,9.37,26
1.712922,-0.35,2.85,9.34,0.0,0.0,0.1875,-36.1875,31.6875,-54.875,359.9375,-2.0625,-16.9375,0.988953,0.147217,0.018311,0.0,0.0,0.0,-0.04,-0.35,2.85,9.37,26
1.723832,-0.36,2.85,9.34,-0.1875,-0.25,0.3125,-36.1875,31.6875,-54.875,359.9375,-2.0625,-16.9375,0.988953,0.147217,0.018311,0.0,0.0,0.0,-0.02,-0.35,2.85,9.37,26
1.734742,-0.36,2.86,9.35,-0.1875,-0.375,0.125,-37.6875,31.375,-54.5,359.9375,-2.0625,-16.9375,0.988953,0.147217,0.018311,0.0,0.0,0.01,-0.02,-0.35,2.85,9.37,26
1.745653,-0.35,2.84,9.33,-0.25,-0.25,0.25,-37.6875,31.375,-54.5,359.9375,-2.0625,-16.9375,0.988953,0.147217,0.018311,0.0,0.0,0.0,-0.05,-0.35,2.85,9.37,26
1.756563,-0.35,2.85,9.32,-0.25,-0.125,0.0,-37.6875,31.375,-54.5,359.9375,-2.0625,-16.9375,0.988953,0.147217,0.018311,0.0,0.0,0.0,-0.01,-0.35,2.85,9.37,26
1.767473,-0.34,2.85,9.35,-0.1875,-0.3125,0.1875,-37.6875,31.375,-54.5,359.9375,-2.0625,-16.9375,0.988953,0.147217,0.018311,0.0,0.0,-0.02,-0.03,-0.35,2.85,9.37,26
1.778384,-0.35,2.83,9.34,-0.0625,-0.25,0.25,-37.6875,31.375,-54.5,359.9375,-2.0625,-16.9375,0.988953,0.147217,0.018311,0.0,0.0,-0.02,-0.03,-0.35,2.85,9.37,26
1.789294,-0.35,2.85,9.35,-0.0625,-0.3125,0.1875,-38.75,31.75,-56.875,359.9375,-2.0625,-16.9375,0.988953,0.147217,0.018311,0.0,0.0,-0.01,-0.04,-0.35,2.85,9.37,26
1.800204,-0.36,2.84,9.33,0.0,-0.375,0.25,-38.75,31.75,-56.875,359.9375,-2.0625,-16.9375,0.988953,0.147217,0.018311,0.0,-0.01,-0.01,-0.04,-0.35,2.85,9.37,26
1.811115,-0.36,2.84,9.32,-0.0625,-0.375,0.125,-38.75,31.75,-56.875,359.9375,-2.0625,-16.9375,0.988953,0.147217,0.018311,0.0,0.0,-0.01,-0.03,-0.35,2.85,9.37,26
1.822025,-0.35,2.84,9.34,0.125,-0.25,0.25,-38.75,31.75,-56.875,359.9375,-2.0625,-16.9375,0.988953,0.147217,0.018311,0.0,0.01,0.02,-0.01,-0.35,2.85,9.37,26
1.832935,-0.33,2.87,9.36,-0.3125,-0.5,0.3125,-36.5625,31.375,-55.75,359.9375,-2.0625,-16.9375,0.988953,0.147217,0.018311,0.0,0.0,0.01,-0.04,-0.35,2.85,9.37,26
1.843846,-0.34,2.86,9.32,-0.125,-0.0625,0.25,-36.5625,31.375,-55.75,359.9375,-2.0625,-16.9375,0.988953,0.147217,0.018311,0.0,0.0,0.01,-0.01,-0.35,2.85,9.37,26
1.854756,-0.35,2.87,9.35,-0.0625,-0.1875,0.1875,-36.5625,31.375,-55.75,359.9375,-2.0625,-16.9375,0.988953,0.147217,0.018311,0.0,0.0,0.01,-0.03,-0.35,2.85,9.37,26
1.865666,-0.34,2.87,9.33,-0.25,0.0625,0.1875,-36.5625,31.375,-55.75,359.9375,-2.0625,-16.9375,0.988953,0.147217,0.018311,0.0,0.0,0.01,-0.02,-0.35,2.85,9.37,26
1.876576,-0.34,2.87,9.34,-0.0625,-0.3125,0.125,-36.5625,31.375,-55.75,359.9375,-2.0625,-16.9375,0.988953,0.147217,0.018311,0.0,0.0,0.0,-0.03,-0.35,2.85,9.37,26
1.887487,-0.34,2.85,9.33,-0.1875,-0.125,0.1875,-37.25,31.75,-56.0625,359.9375,-2.0625,-16.9375,0.988953,0.147217,0.018311,0.0,0.0,0.0,-0.04,-0.35,2.85,9.37,26
1.898397,-0.33,2.86,9.38,-0.0625,-0.25,0.25,-37.25,31.75,-56.0625,359.9375,-2.0625,-16.9375,0.988953,0.147217,0.018311,0.0,0.01,0.0,0.0,-0.35,2.85,9.37,26
1.909307,-0.36,2.87,9.34,-0.1875,-0.1875,0.125,-37.25,31.75,-56.0625,359.9375,-2.0625,-16.9375,0.988953,0.147217,0.018311,0.0,0.0,0.0,0.0,-0.35,2.85,9.37,26
1.920218,-0.36,2.86,9.36,-0.25,-0.3125,0.25,-37.25,31.75,-56.0625,359.9375,-2.0625,-16.9375,0.988953,0.147217,0.018311,0.0,0.0,0.0,-0.01,-0.35,2.85,9.37,26
1.931128,-0.35,2.85,9.35,-0.1875,-0.25,0.1875,-37.25,31.75,-56.0625,359.9375,-2.0625,-16.9375,0.988953,0.147217,0.018311,0.0,0.0,0.0,-0.01,-0.35,2.85,9.37,26
1.942038,-0.33,2.86,9.35,-0.25,-0.375,0.125,-36.5625,31.375,-55.75,359.9375,-2.0625,-16.9375,0.988953,0.147217,0.018311,0.0,0.0,0.0,-0.01,-0.35,2.85,9.37,26
1.952949,-0.34,2.85,9.35,0.0625,-0.25,0.25,-36.5625,31.375,-55.75,359.9375,-2.0625,-16.9375,0.988953,0.147217,0.018311,0.0,0.0,0.0,-0.04,-0.35,2.85,9.37,26
1.963859,-0.35,2.84,9.33,-0.0625,-0.25,0.25,-36.5625,31.375,-55.75,359.9375,-2.0625,-16.9375,0.988953,0.147217,0.018311,0.0,0.0,0.02,-0.03,-0.35,2.85,9.37,26
1.974769,-0.34,2.87,9.33,0.0,-0.25,0.25,-36.5625,31.375,-55.75,359.9375,-2.0625,-16.9375,0.988953,0.147217,0.018311,0.0,0.0,0.01,-0.03,-0.35,2.85,9.37,26
1.98568,-0.34,2.86,9.33,-0.125,-0.4375,0.1875,-36.1875,31.375,-56.5625,359.9375,-2.0625,-16.9375,0.988953,0.147217,0.018311,0.0,0.0,0.0,-0.02,-0.35,2.85,9.37,26
1.99659,-0.34,2.85,9.35,-0.0625,-0.375,0.3125,-36.1875,31.375,-56.5625,359.9375,-2.0625,-16.9375,0.988953,0.147217,0.018311,0.0,0.0,0.0,0.0,-0.35,2.85,9.37,26
2.0075,-0.34,2.84,9.36,0.0625,-0.25,0.1875,-36.1875,31.375,-56.5625,359.9375,-2.0625,-16.9375,0.988953,0.147217,0.018311,0.0,0.0,0.0,-0.04,-0.35,2.85,9.37,26
2.018411,-0.34,2.85,9.33,-0.0625,-0.4375,0.125,-36.1875,31.375,-56.5625,359.9375,-2.0625,-16.9375,0.988953,0.147217,0.018311,0.0,0.0,0.0,-0.02,-0.35,2.85,9.37,26
2.029321,-0.35,2.86,9.34,-0.25,-0.75,0.0625,-36.1875,31.375,-56.5625,0.0,-2.0625,-16.9375,0.988953,0.147217,0.01825,0.0,0.0,0.0,-0.03,-0.35,2.85,9.37,26
2.040231,-0.35,2.85,9.34,-0.1875,-0.3125,0.125,-33.875,30.25,-56.875,0.0,-2.0625,-16.9375,0.988953,0.147217,0.01825,0.0,0.0,0.01,0.0,-0.35,2.85,9.37,26
2.051142,-0.36,2.87,9.36,-0.125,-0.4375,0.125,-33.875,30.25,-56.875,0.0,-2.0625,-16.9375,0.988953,0.147217,0.01825,0.0,-0.01,0.01,0.0,-0.35,2.85,9.37,26
2.062052,-0.35,2.85,9.35,-0.3125,-0.4375,0.25,-33.875,30.25,-56.875,0.0,-2.0625,-16.9375,0.988953,0.147217,0.01825,0.0,0.01,0.0,-0.03,-0.35,2.85,9.37,26
2.072962,-0.33,2.85,9.34,-0.1875,0.0625,0.1875,-33.875,30.25,-56.875,0.0,-2.0625,-16.9375,0.988953,0.147217,0.01825,0.0,0.0,0.02,0.0,-0.35,2.85,9.37,26
2.083873,-0.34,2.87,9.37,0.0625,-0.3125,0.25,-33.875,30.25,-56.875,0.0,-2.0625,-16.9375,0.988953,0.147217,0.01825,0.0,0.0,0.02,0.0,-0.35,2.85,9.37,26
2.094783,-0.34,2.86,9.34,0.1875,-0.125,0.25,-36.5625,30.5625,-56.0625,0.0,-2.0625,-16.9375,0.988953,0.147217,0.01825,0.0,0.0,-0.02,-0.03,-0.35,2.85,9.37,26
2.105693,-0.35,2.83,9.34,-0.0625,-0.3125,0.25,-36.5625,30.5625,-56.0625,0.0,-2.0625,-16.9375,0.988953,0.147217,0.01825,0.0,0.0,0.0,-0.04,-0.35,2.85,9.37,26
2.116604,-0.34,2.85,9.33,-0.1875,-0.4375,0.1875,-36.5625,30.5625,-56.0625,0.0,-2.0625,-16.9375,0.988953,0.147217,0.01825,0.0,0.0,0.0,-0.02,-0.35,2.85,9.37,26
2.127514,-0.35,2.84,9.37,-0.3125,-0.3125,0.1875,-36.5625,30.5625,-56.0625,0.0,-2.0625,-16.9375,0.988953,0.147217,0.01825,0.0,0.0,0.0,0.0,-0.35,2.85,9.37,26
2.138424,-0.35,2.85,9.33,-0.25,-0.5,0.0625,-37.6875,32.0625,-56.0625,0.0,-2.0625,-16.9375,0.988953,0.147217,0.01825,0.0,0.0,0.0,-0.04,-0.35,2.85,9.37,26
2.149335,-0.35,2.87,9.35,0.0625,-0.25,0.1875,-37.6875,32.0625,-56.0625,0.0,-2.0625,-16.9375,0.988953,0.147217,0.01825,0.0,0.0,0.02,-0.03,-0.35,2.85,9.37,26
2.160245,-0.35,2.87,9.33,-0.375,-0.3125,0.1875,-37.6875,32.0625,-56.0625,0.0,-2.0625,-16.9375,0.988953,0.147217,0.01825,0.0,-0.01,0.0,-0.02,-0.35,2.85,9.37,26
2.171155,-0.36,2.85,9.35,-0.25,-0.375,0.125,-37.6875,32.0625,-56.0625,0.0,-2.0625,-16.9375,0.988953,0.147217,0.01825,0.0,0.02,0.0,-0.02,-0.35,2.85,9.37,26
2.182066,-0.33,2.84,9.35,-0.25,-0.3125,0.3125,-37.6875,32.0625,-56.0625,0.0,-2.0625,-16.9375,0.988953,0.147217,0.01825,0.0,0.02,0.0,-0.02,-0.35,2.85,9.37,26
2.192976,-0.35,2.85,9.34,-0.0625,-0.125,0.125,-39.1875,31.75,-55.75,0.0,-2.0625,-16.9375,0.988953,0.147217,0.01825,0.0,0.0,0.0,-0.02,-0.35,2.85,9.37,26
2.203886,-0.34,2.84,9.34,-0.3125,0.125,0.125,-39.1875,31.75,-55.75,0.0,-2.0625,-16.9375,0.988953,0.147217,0.01825,0.0,0.01,0.02,-0.02,-0.35,2.85,9.37,26
2.214797,-0.33,2.87,9.34,-0.0625,-0.3125,0.125,-39.1875,31.75,-55.75,0.0,-2.0625,-16.9375,0.988953,0.147217,0.01825,0.0,-0.01,0.0,-0.01,-0.35,2.85,9.37,26
2.225707,-0.36,2.86,9.35,-0.125,-0.5,0.25,-39.1875,31.75,-55.75,0.0,-2.0625,-16.9375,0.988953,0.147217,0.01825,0.0,0.0,0.0,-0.01,-0.35,2.85,9.37,26
2.236617,-0.35,2.85,9.36,-0.1875,-0.4375,0.25,-37.6875,31.75,-56.0625,0.0,-2.0625,-16.9375,0.988953,0.147217,0.01825,0.0,-0.01,0.01,-0.03,-0.35,2.85,9.37,26
2.247528,-0.36,2.86,9.33,-0.3125,-0.375,0.125,-37.6875,31.75,-56.0625,0.0,-2.0625,-16.9375,0.988953,0.147217,0.01825,0.0,0.01,0.0,-0.02,-0.35,2.85,9.37,26
2.258438,-0.33,2.85,9.34,-0.0625,-0.375,0.25,-37.6875,31.75,-56.0625,0.0,-2.0625,-16.9375,0.988953,0.147217,0.01825,0.0,0.0,0.01,-0.03,-0.35,2.85,9.37,26
2.269348,-0.34,2.87,9.34,0.1875,-0.125,0.125,-37.6875,31.75,-56.0625,0.0,-2.0625,-16.9375,0.988953,0.147217,0.01825,0.0,0.0,-0.01,0.0,-0.35,2.85,9.37,26
2.280259,-0.34,2.84,9.37,-0.25,-0.25,0.0625,-37.6875,31.75,-56.0625,0.0,-2.0625,-16.9375,0.988953,0.147217,0.01825,0.0,0.0,-0.01,-0.02,-0.35,2.85,9.37,26
2.291169,-0.35,2.84,9.35,-0.0625,-0.375,0.25,-35.375,31.75,-55.75,0.0,-2.0625,-16.9375,0.988953,0.147217,0.01825,0.0,0.0,0.01,-0.02,-0.35,2.85,9.37,26
2.302079,-0.34,2.86,9.32,-0.25,-0.4375,0.0625,-35.375,31.75,-55.75,0.0,-2.0625,-16.9375,0.988953,0.147217,0.01825,0.0,0.0,0.0,-0.04,-0.35,2.85,9.37,26
2.31299,-0.35,2.84,9.32,-0.4375,-0.3125,0.25,-35.375,31.75,-55.75,0.0,-2.0625,-16.9375,0.988953,0.147217,0.01825,0.0,0.0,0.0,-0.01,-0.35,2.85,9.37,26
2.3239,-0.34,2.86,9.35,0.0,0.125,0.25,-35.375,31.75,-55.75,0.0,-2.0625,-16.9375,0.988953,0.147217,0.01825,0.0,-0.01,0.01,-0.02,-0.35,2.85,9.37,26
2.33481,-0.36,2.86,9.34,-0.1875,0.125,0.125,-35.375,31.75,-55.75,0.0,-2.0625,-16.9375,0.988953,0.147217,0.01825,0.0,-0.01,0.01,-0.02,-0.35,2.85,9.37,26
2.345721,-0.35,2.83,9.37,0.0,-0.1875,0.0625,-38.0625,31.75,-59.0,0.0,-2.0625,-16.9375,0.988953,0.147217,0.01825,0.0,0.0,0.0,-0.01,-0.35,2.85,9.37,26
2.356631,-0.34,2.85,9.35,-0.125,-0.1875,0.1875,-38.0625,31.75,-59.0,0.0,-2.0625,-16.9375,0.988953,0.147217,0.01825,0.0,0.0,0.0,-0.02,-0.35,2.85,9.37,26
2.367541,-0.35,2.85,9.35,0.0625,-0.0625,0.0,-38.0625,31.75,-59.0,0.0,-2.0625,-16.9375,0.988953,0.147217,0.01825,0.0,0.0,0.0,-0.01,-0.35,2.85,9.37,26
2.378452,-0.35,2.85,9.36,-0.0625,-0.1875,0.1875,-38.0625,31.75,-59.0,0.0,-2.0625,-16.9375,0.988953,0.147217,0.01825,0.0,0.01,0.0,-0.01,-0.35,2.85,9.37,26
2.389362,-0.33,2.84,9.35,0.0625,-0.1875,0.1875,-34.25,29.875,-60.5625,0.0,-2.0625,-16.9375,0.988953,0.147217,0.01825,0.0,0.01,0.0,-0.01,-0.35,2.85,9.37,26
2.400272,-0.35,2.86,9.34,0.0625,-0.25,0.1875,-34.25,29.875,-60.5625,0.0,-2.0625,-16.9375,0.988953,0.147217,0.01825,0.0,0.0,0.0,-0.02,-0.35,2.85,9.37,26
2.411183,-0.34,2.85,9.34,-0.25,-0.1875,0.1875,-34.25,29.875,-60.5625,0.0,-2.0625,-16.9375,0.988953,0.147217,0.01825,0.0,0.0,0.0,-0.02,-0.35,2.85,9.37,26
2.422093,-0.34,2.84,9.34,-0.0625,-0.5,0.25,-34.25,29.875,-60.5625,0.0,-2.0625,-16.9375,0.988953,0.147217,0.01825,0.0,-0.01,0.0,-0.03,-0.35,2.85,9.37,26
2.433003,-0.36,2.85,9.33,0.0,-0.5625,0.1875,-34.25,29.875,-60.5625,0.0,-2.0625,-16.9375,0.988953,0.147217,0.01825,0.0,-0.01,0.0,-0.03,-0.35,2.85,9.37,26
2.443914,-0.34,2.84,9.35,-0.0625,-0.375,0.25,-33.1875,30.25,-60.5625,0.0,-2.0625,-16.9375,0.988953,0.147217,0.01825,0.0,0.0,0.0,-0.03,-0.35,2.85,9.37,26
2.454824,-0.34,2.84,9.33,-0.0625,-0.3125,0.3125,-33.1875,30.25,-60.5625,0.0,-2.0625,-16.9375,0.988953,0.147217,0.01825,0.0,0.0,0.0,-0.03,-0.35,2.85,9.37,26
2.465734,-0.35,2.86,9.34,-0.1875,-0.3125,0.1875,-33.1875,30.25,-60.5625,0.0,-2.0625,-16.9375,0.988953,0.147217,0.01825,0.0,0.01,-0.02,-0.02,-0.35,2.85,9.37,26
2.476645,-0.33,2.83,9.34,0.0625,-0.4375,0.25,-33.1875,30.25,-60.5625,0.0,-2.0625,-16.9375,0.988953,0.147217,0.01825,0.0,0.0,0.02,-0.02,-0.35,2.85,9.37,26
2.487555,-0.35,2.87,9.35,-0.125,-0.5625,0.1875,-34.25,29.0625,-59.75,0.0,-2.0625,-16.9375,0.988953,0.147217,0.01825,0.0,0.0,-0.01,-0.02,-0.35,2.85,9.37,26
2.498465,-0.34,2.84,9.34,-0.1875,-0.3125,0.1875,-34.25,29.0625,-59.75,0.0,-2.0625,-16.9375,0.988953,0.147217,0.01825,0.0,0.0,0.0,-0.03,-0.35,2.85,9.37,26
2.509376,-0.35,2.85,9.34,-0.375,-0.125,0.25,-34.25,29.0625,-59.75,0.0,-2.0625,-16.9375,0.988953,0.147217,0.01825,0.0,0.01,0.01,-0.04,-0.35,2.85,9.37,26
2.520286,-0.33,2.86,9.33,-0.0625,-0.125,0.25,-34.25,29.0625,-59.75,0.0,-2.0625,-16.9375,0.988953,0.147217,0.01825,0.0,0.0,-0.01,-0.04,-0.35,2.85,9.37,26
2.531196,-0.35,2.83,9.33,-0.3125,-0.3125,0.125,-34.25,29.0625,-59.75,0.0,-2.0625,-16.9375,0.988953,0.147217,0.01825,0.0,0.01,-0.02,-0.04,-0.35,2.85,9.37,26
2.542107,-0.35,2.85,9.34,0.0625,-0.0625,0.1875,-37.25,31.75,-55.75,0.0,-2.0625,-16.9375,0.988953,0.147217,0.01825,0.0,0.0,0.0,-0.02,-0.35,2.85,9.37,26
2.553017,-0.35,2.84,9.32,0.0625,0.0,0.1875,-37.25,31.75,-55.75,0.0,-2.0625,-16.9375,0.988953,0.147217,0.01825,0.0,-0.01,0.0,-0.05,-0.35,2.85,9.37,26
2.563927,-0.36,2.85,9.32,-0.125,-0.1875,0.1875,-37.25,31.75,-55.75,0.0,-2.0625,-16.9375,0.988953,0.147217,0.01825,0.0,0.0,0.0,-0.03,-0.35,2.85,9.37,26
2.574838,-0.35,2.85,9.34,-0.125,-0.125,0.25,-37.25,31.75,-55.75,0.0,-2.0625,-16.9375,0.988953,0.147217,0.01825,0.0,0.0,0.0,0.0,-0.35,2.85,9.37,26
2.585748,-0.35,2.86,9.36,-0.1875,-0.25,0.1875,-37.25,31.75,-55.75,0.0,-2.0625,-16.9375,0.988953,0.147217,0.01825,0.0,0.0,0.0,0.0,-0.35,2.85,9.37,26
2.596658,-0.35,2.86,9.35,0.0,-0.3125,0.25,-35.75,31.0,-56.1875,0.0,-2.0625,-16.9375,0.988953,0.147217,0.01825,0.0,0.0,0.0,-0.05,-0.35,2.85,9.37,26
2.607568,-0.35,2.85,9.31,0.0,-0.125,0.25,-35.75,31.0,-56.1875,0.0,-2.0625,-16.9375,0.988953,0.147217,0.01825,0.0,0.0,0.0,-0.05,-0.35,2.85,9.37,26
2.618479,-0.35,2.85,9.33,-0.125,-0.0625,0.25,-35.75,31.0,-56.1875,0.0,-2.0625,-16.9375,0.988953,0.147217,0.01825,0.0,0.0,0.0,-0.03,-0.35,2.85,9.37,26
2.629389,-0.35,2.84,9.36,-0.1875,-0.1875,0.125,-35.75,31.0,-56.1875,0.0,-2.0625,-16.9375,0.988953,0.147217,0.01825,0.0,0.0,0.0,0.0,-0.35,2.85,9.37,26
2.640299,-0.35,2.86,9.34,-0.125,-0.3125,0.1875,-36.875,31.375,-56.1875,0.0,-2.0625,-16.9375,0.988953,0.147217,0.01825,0.0,0.0,0.0,-0.02,-0.35,2.85,9.37,26
2.65121,-0.34,2.85,9.34,-0.0625,-0.25,0.25,-36.875,31.375,-56.1875,0.0,-2.0625,-16.9375,0.988953,0.147217,0.01825,0.0,0.0,0.0,-0.01,-0.35,2.85,9.37,26
2.66212,-0.34,2.85,9.36,-0.125,-0.4375,0.1875,-36.875,31.375,-56.1875,0.0,-2.0625,-16.9375,0.988953,0.147217,0.01825,0.0,0.0,0.0,0.0,-0.35,2.85,9.37,26
2.67303,-0.35,2.85,9.37,0.0,-0.1875,0.25,-36.875,31.375,-56.1875,0.0,-2.0625,-16.9375,0.988953,0.147217,0.01825,0.0,-0.01,0.0,-0.01,-0.35,2.85,9.37,26
2.683941,-0.36,2.85,9.35,-0.1875,-0.1875,0.1875,-38.375,31.75,-56.5625,0.0,-2.0625,-16.9375,0.988953,0.147217,0.01825,0.0,0.0,0.0,-0.02,-0.35,2.85,9.37,26
2.694851,-0.34,2.85,9.34,-0.25,-0.3125,0.25,-38.375,31.75,-56.5625,0.0,-2.0625,-16.9375,0.988953,0.147217,0.01825,0.0,0.0,0.01,-0.02,-0.35,2.85,9.37,26
2.705761,-0.34,2.87,9.34,-0.0625,-0.1875,0.125,-38.375,31.75,-56.5625,0.0,-2.0625,-16.9375,0.988953,0.147217,0.01825,0.0,0.0,0.0,-0.04,-0.35,2.85,9.37,26
2.716672,-0.35,2.85,9.33,-0.25,-0.25,0.1875,-38.375,31.75,-56.5625,0.0,-2.0625,-16.9375,0.988953,0.147217,0.01825,0.0,0.0,0.01,-0.03,-0.35,2.85,9.37,26
2.727582,-0.34,2.86,9.33,-0.25,-0.3125,0.0625,-38.375,31.75,-56.5625,0.0,-2.0625,-16.9375,0.988953,0.147217,0.01825,0.0,0.0,-0.01,-0.02,-0.35,2.85,9.37,26
2.738492,-0.35,2.84,9.34,-0.125,-0.25,0.1875,-36.1875,31.0,-55.0,0.0,-2.0625,-16.9375,0.988953,0.147217,0.01825,0.0,0.0,0.01,0.0,-0.35,2.85,9.37,26
2.749403,-0.35,2.86,9.38,0.0,-0.3125,0.125,-36.1875,31.0,-55.0,0.0,-2.0625,-16.9375,0.988953,0.147217,0.01825,0.0,0.0,0.0,-0.01,-0.35,2.85,9.37,26
2.760313,-0.35,2.85,9.36,-0.25,-0.125,0.25,-36.1875,31.0,-55.0,0.0,-2.0625,-16.9375,0.988953,0.147217,0.01825,0.0,0.0,0.01,-0.05,-0.35,2.85,9.37,26
2.771223,-0.34,2.86,9.31,-0.25,-0.1875,0.25,-36.1875,31.0,-55.0,0.0,-2.0625,-16.9375,0.988953,0.147217,0.01825,0.0,0.0,0.0,-0.03,-0.35,2.85,9.37,26
2.782134,-0.34,2.85,9.34,0.0,-0.375,0.375,-36.1875,31.0,-55.0,0.0,-2.0625,-16.9375,0.988953,0.147217,0.01825,0.0,0.0,-0.01,0.0,-0.35,2.85,9.37,26
2.793044,-0.34,2.84,9.37,-0.3125,-0.375,0.25,-37.25,31.75,-55.375,0.0,-2.0625,-16.9375,0.988953,0.147217,0.01825,0.0,0.0,0.0,-0.02,-0.35,2.85,9.37,26
2.803954,-0.35,2.85,9.35,-0.1875,-0.4375,0.25,-37.25,31.75,-55.375,0.0,-2.0625,-16.9375,0.988953,0.147217,0.01825,0.0,0.01,0.0,-0.02,-0.35,2.85,9.37,26
2.814865,-0.33,2.85,9.34,-0.0625,-0.25,0.1875,-37.25,31.75,-55.375,0.0,-2.0625,-16.9375,0.988953,0.147217,0.01825,0.0,0.0,0.0,-0.01,-0.35,2.85,9.37,26
2.825775,-0.35,2.85,9.39,-0.125,-0.3125,0.1875,-37.25,31.75,-55.375,0.0,-2.0625,-16.9375,0.988953,0.147217,0.01825,0.0,0.0,0.0,0.01,-0.35,2.85,9.37,26
2.836685,-0.35,2.86,9.34,-0.125,-0.25,0.25,-37.25,31.75,-55.375,0.0,-2.0625,-16.9375,0.988953,0.147217,0.01825,0.0,0.0,0.01,-0.02,-0.35,2.85,9.37,26
2.847596,-0.36,2.85,9.35,-0.25,-0.375,0.1875,-39.5625,31.75,-54.1875,0.0,-2.0625,-16.9375,0.988953,0.147217,0.01825,0.0,0.0,-0.01,-0.03,-0.35,2.85,9.37,26
2.858506,-0.35,2.83,9.34,-0.3125,-0.1875,0.1875,-39.5625,31.75,-54.1875,0.0,-2.0625,-16.9375,0.988953,0.147217,0.01825,0.0,0.0,0.0,-0.02,-0.35,2.85,9.37,26
2.869416,-0.35,2.85,9.35,-0.1875,-0.1875,0.3125,-39.5625,31.75,-54.1875,0.0,-2.0625,-16.9375,0.988953,0.147217,0.01825,0.0,0.0,0.0,-0.02,-0.35,2.85,9.37,26
2.880327,-0.35,2.85,9.34,-0.0625,-0.4375,0.25,-39.5625,31.75,-54.1875,0.0,-2.0625,-16.9375,0.988953,0.147217,0.01825,0.0,0.0,0.0,-0.02,-0.35,2.85,9.37,26
2.891237,-0.35,2.85,9.34,0.0,-0.5625,0.1875,-38.375,32.5,-56.5625,0.0,-2.0625,-16.9375,0.988953,0.147217,0.01825,0.0,0.0,-0.02,-0.01,-0.35,2.85,9.37,26
2.902147,-0.34,2.83,9.35,0.0,-0.4375,0.1875,-38.375,32.5,-56.5625,0.0,-2.0625,-16.9375,0.988953,0.147217,0.01825,0.0,0.0,0.0,-0.02,-0.35,2.85,9.37,26
2.913058,-0.34,2.85,9.35,-0.0625,-0.125,0.125,-38.375,32.5,-56.5625,0.0,-2.0625,-16.9375,0.988953,0.147217,0.01825,0.0,0.0,0.02,-0.03,-0.35,2.85,9.37,26
2.923968,-0.35,2.88,9.33,-0.0625,-0.3125,0.25,-38.375,32.5,-56.5625,0.0,-2.0625,-16.9375,0.988953,0.147217,0.01825,0.0,0.0,0.0,-0.01,-0.35,2.85,9.37,26
2.934878,-0.35,2.85,9.36,-0.125,-0.25,0.0625,-38.375,32.5,-56.5625,0.0,-2.0625,-16.9375,0.988953,0.147217,0.01825,0.0,0.0,0.0,-0.02,-0.35,2.85,9.37,26
2.945789,-0.34,2.86,9.36,-0.1875,-0.3125,0.0625,-38.0625,31.375,-56.1875,0.0,-2.0625,-16.9375,0.988953,0.147217,0.01825,0.0,0.0,0.0,-0.01,-0.35,2.85,9.37,26
2.956699,-0.34,2.85,9.37,-0.1875,-0.4375,0.25,-38.0625,31.375,-56.1875,0.0,-2.0625,-16.9375,0.988953,0.147217,0.01825,0.0,0.0,0.0,-0.04,-0.35,2.85,9.37,26
2.967609,-0.35,2.85,9.33,0.125,-0.25,0.0625,-38.0625,31.375,-56.1875,0.0,-2.0625,-16.9375,0.988953,0.147217,0.01825,0.0,0.0,0.0,-0.02,-0.35,2.85,9.37,26
2.97852,-0.34,2.85,9.34,0.0625,-0.3125,0.375,-38.0625,31.375,-56.1875,0.0,-2.0625,-16.9375,0.988953,0.147217,0.01825,0.0,-0.01,0.0,-0.01,-0.35,2.85,9.37,26
2.98943,-0.36,2.85,9.35,0.0625,0.0625,0.125,-38.0625,31.375,-56.1875,0.0,-2.0625,-16.9375,0.988953,0.147217,0.01825,0.0,-0.01,0.0,-0.01,-0.35,2.85,9.37,26
3.00034,-0.34,2.85,9.37,0.0,-0.3125,0.3125,-37.25,32.0625,-56.1875,0.0,-2.0625,-16.9375,0.988953,0.147217,0.01825,0.0,-0.01,0.0,0.0,-0.35,2.85,9.37,26
3.011251,-0.36,2.85,9.36,-0.0625,0.125,0.1875,-37.25,32.0625,-56.1875,0.0,-2.0625,-16.9375,0.988953,0.147217,0.01825,0.0,0.0,-0.01,-0.02,-0.35,2.85,9.37,26
3.022161,-0.35,2.84,9.35,-0.1875,-0.3125,0.1875,-37.25,32.0625,-56.1875,0.0,-2.0625,-16.9375,0.988953,0.147217,0.01825,0.0,0.0,-0.01,-0.02,-0.35,2.85,9.37,26
3.033071,-0.34,2.85,9.37,0.0,-0.1875,0.125,-37.25,32.0625,-56.1875,0.0,-2.0625,-16.9375,0.988953,0.147217,0.01825,0.0,0.0,0.0,0.0,-0.35,2.85,9.37,26
3.043982,-0.34,2.85,9.36,-0.125,-0.125,0.125,-38.0625,31.0,-55.375,0.0,-2.0625,-16.9375,0.988953,0.147217,0.01825,0.0,0.0,0.01,-0.01,-0.35,2.85,9.37,26
3.054892,-0.35,2.87,9.35,0.0625,-0.125,0.25,-38.0625,31.0,-55.375,0.0,-2.0625,-16.9375,0.988953,0.147217,0.01825,0.0,0.0,0.01,-0.05,-0.35,2.85,9.37,26
3.065802,-0.35,2.87,9.32,0.0,-0.3125,0.125,-38.0625,31.0,-55.375,0.0,-2.0625,-16.9375,0.988953,0.147217,0.01825,0.0,0.01,0.0,-0.03,-0.35,2.85,9.37,26
3.076713,-0.33,2.85,9.34,-0.1875,-0.25,0.125,-38.0625,31.0,-55.375,0.0,-2.0625,-16.9375,0.988953,0.147217,0.01825,0.0,0.0,0.0,-0.02,-0.35,2.85,9.37,26
3.087623,-0.35,2.85,9.35,-0.125,-0.25,0.125,-38.0625,31.0,-55.375,0.0,-2.0625,-16.9375,0.988953,0.147217,0.01825,0.0,0.0,0.0,-0.02,-0.35,2.85,9.37,26
3.098533,-0.36,2.86,9.35,-0.0625,-0.125,0.1875,-37.6875,31.375,-55.75,0.0,-2.0625,-16.9375,0.988953,0.147217,0.01825,0.0,0.0,0.0,0.0,-0.35,2.85,9.37,26
3.109444,-0.35,2.85,9.38,-0.1875,-0.1875,0.125,-37.6875,31.375,-55.75,0.0,-2.0625,-16.9375,0.988953,0.147217,0.01825,0.0,0.0,0.0,-0.04,-0.35,2.85,9.37,26
3.120354,-0.34,2.85,9.33,-0.0625,-0.375,0.25,-37.6875,31.375,-55.75,0.0,-2.0625,-16.9375,0.988953,0.147217,0.01825,0.0,0.0,0.02,-0.03,-0.35,2.85,9.37,26
3.131264,-0.35,2.87,9.33,0.0,-0.375,0.1875,-37.6875,31.375,-55.75,0.0,-2.0625,-16.9375,0.988953,0.147217,0.01825,0.0,0.0,0.01,-0.02,-0.35,2.85,9.37,26
3.142175,-0.34,2.86,9.35,-0.25,-0.375,-0.0625,-37.6875,31.0,-57.0,0.0,-2.0625,-16.9375,0.988953,0.147217,0.01825,0.0,0.0,0.0,0.0,-0.35,2.85,9.37,26
3.153085,-0.36,2.83,9.35,-0.1875,-0.375,0.0625,-37.6875,31.0,-57.0,0.0,-2.0625,-16.9375,0.988953,0.147217,0.01825,0.0,-0.01,-0.02,-0.02,-0.35,2.85,9.37,26
3.163995,-0.34,2.84,9.33,-0.125,0.3125,-0.0625,-37.6875,31.0,-57.0,0.0,-2.0625,-16.9375,0.988953,0.147217,0.01825,0.0,0.01,0.0,0.0,-0.35,2.85,9.37,26
3.174906,-0.33,2.85,9.37,0.0,-0.0625,0.0,-37.6875,31.0,-57.0,0.0,-2.0625,-16.9375,0.988953,0.147217,0.01825,0.0,0.0,0.0,-0.03,-0.35,2.85,9.37,26
3.185816,-0.35,2.85,9.34,0.0,-0.0625,-0.0625,-37.6875,31.0,-57.0,0.0,-2.0625,-16.9375,0.988953,0.147217,0.01825,0.0,0.0,0.0,-0.03,-0.35,2.85,9.37,26
3.196726,-0.34,2.86,9.34,-0.125,0.0,0.0,-36.1875,32.0625,-57.75,0.0,-2.0625,-16.9375,0.988953,0.147217,0.01825,0.0,0.01,0.0,-0.02,-0.35,2.85,9.37,26
3.207637,-0.33,2.86,9.34,0.1875,0.25,0.125,-36.1875,32.0625,-57.75,0.0,-2.0625,-16.9375,0.988953,0.147217,0.01825,0.0,0.01,0.0,-0.03,-0.35,2.85,9.37,26
3.218547,-0.33,2.85,9.34,0.3125,0.3125,0.0,-36.1875,32.0625,-57.75,0.0,-2.0625,-16.9375,0.988953,0.147217,0.01825,0.0,0.0,0.01,-0.01,-0.35,2.85,9.37,26
3.229457,-0.34,2.87,9.36,0.0625,0.125,-0.0625,-36.1875,32.0625,-57.75,0.0,-2.0625,-16.9375,0.988953,0.147217,0.01825,0.0,0.0,0.03,-0.02,-0.35,2.85,9.37,26
3.240368,-0.34,2.88,9.35,0.0625,-0.0625,0.125,-37.25,31.375,-55.75,0.0,-2.0625,-16.9375,0.988953,0.147217,0.01825,0.0,0.0,0.01,-0.01,-0.35,2.85,9.37,26
3.251278,-0.34,2.84,9.33,0.125,0.0625,0.125,-37.25,31.375,-55.75,0.0,-2.0625,-16.9375,0.988953,0.147217,0.01825,0.0,0.0,0.0,-0.04,-0.35,2.85,9.37,26
3.262188,-0.33,2.87,9.35,0.0,0.25,-0.0625,-37.25,31.375,-55.75,0.0,-2.0625,-16.9375,0.988953,0.147217,0.01825,0.0,-0.01,-0.01,-0.02,-0.35,2.85,9.37,26
3.273099,-0.36,2.83,9.34,-0.25,0.125,-0.0625,-37.25,31.375,-55.75,0.0,-2.0625,-16.9375,0.988953,0.147217,0.01825,0.0,0.0,-0.01,-0.02,-0.35,2.85,9.37,26
3.284009,-0.35,2.83,9.35,0.0,-0.1875,0.0,-37.25,31.375,-55.75,0.0,-2.0625,-16.9375,0.988953,0.147217,0.01825,0.0,0.0,-0.01,-0.02,-0.35,2.85,9.37,26
3.294919,-0.35,2.84,9.37,0.0625,0.1875,0.0,-37.25,32.0625,-56.25,0.0,-2.0625,-16.9375,0.988953,0.147217,0.01825,0.0,0.0,0.0,-0.04,-0.35,2.85,9.37,26
3.30583,-0.34,2.85,9.33,0.0625,0.0625,0.0,-37.25,32.0625,-56.25,0.0,-2.0625,-16.9375,0.988953,0.147217,0.01825,0.0,0.0,-0.01,-0.06,-0.35,2.85,9.37,26
3.31674,-0.34,2.84,9.31,0.0,0.1875,0.0625,-37.25,32.0625,-56.25,0.0,-2.0625,-16.9375,0.988953,0.147217,0.01825,0.0,0.0,0.0,-0.02,-0.35,2.85,9.37,26
3.32765,-0.34,2.85,9.34,0.0625,0.4375,0.0,-37.25,32.0625,-56.25,0.0,-2.0625,-16.9375,0.988953,0.147217,0.01825,0.0,0.0,0.0,-0.03,-0.35,2.85,9.37,26
3.338561,-0.35,2.87,9.39,-0.0625,0.0,0.0,-38.0625,31.75,-55.0,0.0,-2.0625,-16.9375,0.988953,0.147217,0.01825,0.0,0.0,0.01,0.01,-0.35,2.85,9.37,26
3.349471,-0.34,2.86,9.35,-0.125,0.0625,0.0,-38.0625,31.75,-55.0,0.0,-2.0625,-16.9375,0.988953,0.147217,0.01825,0.0,0.0,0.0,-0.04,-0.35,2.85,9.37,26
3.360381,-0.34,2.86,9.33,0.0,0.0,0.0,-38.0625,31.75,-55.0,0.0,-2.0625,-16.9375,0.988953,0.147217,0.01825,0.0,0.02,0.01,-0.03,-0.35,2.85,9.37,26
3.371291,-0.32,2.87,9.34,-0.125,-0.25,0.0,-38.0625,31.75,-55.0,0.0,-2.0625,-16.9375,0.988953,0.147217,0.01825,0.0,0.0,0.02,0.0,-0.35,2.85,9.37,26
3.382202,-0.34,2.87,9.37,-0.25,0.0,0.0,-38.0625,31.75,-55.0,0.0,-2.0625,-16.9375,0.988953,0.147217,0.01825,0.0,0.0,0.02,0.0,-0.35,2.85,9.37,26
3.393112,-0.35,2.86,9.33,0.0625,0.125,0.0625,-36.875,32.5,-56.5625,0.0,-2.0625,-16.9375,0.988953,0.147217,0.01825,0.0,0.01,0.0,-0.04,-0.35,2.85,9.37,26
3.404022,-0.33,2.86,9.32,0.0625,0.1875,0.0,-36.875,32.5,-56.5625,0.0,-2.0625,-16.9375,0.988953,0.147217,0.01825,0.0,0.0,0.01,-0.04,-0.35,2.85,9.37,26
3.414933,-0.34,2.87,9.33,-0.0625,0.0625,0.0625,-36.875,32.5,-56.5625,0.0,-2.0625,-16.9375,0.988953,0.147217,0.01825,0.0,0.0,0.01,-0.05,-0.35,2.85,9.37,26
3.425843,-0.35,2.87,9.31,0.0625,0.125,0.0625,-36.875,32.5,-56.5625,0.0,-2.0625,-16.9375,0.988953,0.147217,0.01825,0.0,0.0,0.0,-0.04,-0.35,2.85,9.37,26
3.436753,-0.34,2.85,9.33,-0.125,0.1875,0.0625,-38.0625,31.75,-56.5625,0.0,-2.0625,-16.9375,0.988953,0.147217,0.01825,0.0,0.0,0.0,-0.03,-0.35,2.85,9.37,26
3.447664,-0.35,2.86,9.37,-0.125,0.125,0.0625,-38.0625,31.75,-56.5625,0.0,-2.0625,-16.9375,0.988953,0.147217,0.01825,0.0,0.0,0.01,0.0,-0.35,2.85,9.37,26
3.458574,-0.35,2.86,9.35,-0.125,0.125,0.0625,-38.0625,31.75,-56.5625,0.0,-2.0625,-16.9375,0.988953,0.147217,0.01825,0.0,0.0,0.02,-0.04,-0.35,2.85,9.37,26
3.469484,-0.35,2.87,9.33,-0.125,0.125,-0.125,-38.0625,31.75,-56.5625,0.0,-2.0625,-16.9375,0.988953,0.147217,0.01825,0.0,0.0,0.01,-0.01,-0.35,2.85,9.37,26
3.480395,-0.34,2.87,9.35,-0.25,-0.25,-0.0625,-38.0625,31.75,-56.5625,0.0,-2.0625,-16.9375,0.988953,0.147217,0.01825,0.0,0.0,0.01,-0.01,-0.35,2.85,9.37,26
3.491305,-0.34,2.84,9.37,0.0,0.25,0.0625,-33.25,30.25,-60.5625,0.0,-2.0625,-16.9375,0.988953,0.147217,0.01825,0.0,0.01,0.0,-0.03,-0.35,2.85,9.37,26
3.502215,-0.33,2.85,9.33,-0.125,0.0625,0.0625,-33.25,30.25,-60.5625,0.0,-2.0625,-16.9375,0.988953,0.147217,0.01825,0.0,0.0,0.01,-0.03,-0.35,2.85,9.37,26
3.513126,-0.35,2.86,9.34,0.0,0.0,0.0,-33.25,30.25,-60.5625,0.0,-2.0625,-16.9375,0.988953,0.147217,0.01825,0.0,0.0,-0.01,0.0,-0.35,2.85,9.37,26
3.524036,-0.34,2.84,9.37,-0.0625,-0.3125,0.0625,-33.25,30.25,-60.5625,0.0,-2.0625,-16.9375,0.988953,0.147217,0.01825,0.0,0.0,0.02,-0.05,-0.35,2.85,9.37,26
3.534946,-0.35,2.87,9.32,-0.125,0.0625,0.0625,-34.25,31.375,-60.5625,0.0,-2.0625,-16.9375,0.988953,0.147217,0.01825,0.0,0.0,0.0,-0.02,-0.35,2.85,9.37,26
3.545857,-0.34,2.85,9.34,-0.0625,0.1875,0.0,-34.25,31.375,-60.5625,0.0,-2.0625,-16.9375,0.988953,0.147217,0.01825,0.0,0.0,0.0,-0.01,-0.35,2.85,9.37,26
3.556767,-0.35,2.84,9.35,0.0625,-0.0625,-0.0625,-34.25,31.375,-60.5625,0.0,-2.0625,-16.9375,0.988953,0.147217,0.01825,0.0,0.01,0.01,-0.04,-0.35,2.85,9.37,26
3.567677,-0.34,2.87,9.35,-0.125,0.0625,0.1875,-34.25,31.375,-60.5625,0.0,-2.0625,-16.9375,0.988953,0.147217,0.01825,0.0,0.0,0.02,-0.01,-0.35,2.85,9.37,26
3.578588,-0.34,2.82,9.35,-0.125,0.1875,0.0,-34.25,31.375,-60.5625,0.0,-2.0625,-16.9375,0.988953,0.147217,0.01825,0.0,0.0,-0.02,-0.02,-0.35,2.85,9.37,26
3.589498,-0.36,2.83,9.37,-0.0625,0.0,-0.0625,-32.875,31.0,-60.25,0.0,-2.0625,-16.9375,0.988953,0.147217,0.01825,0.0,0.0,0.02,-0.02,-0.35,2.85,9.37,26
3.600408,-0.35,2.87,9.34,0.25,0.3125,0.125,-32.875,31.0,-60.25,0.0,-2.0625,-16.9375,0.988953,0.147217,0.01825,0.0,0.0,0.0,-0.03,-0.35,2.85,9.37,26
3.611319,-0.34,2.84,9.34,-0.0625,-0.0625,-0.0625,-32.875,31.0,-60.25,0.0,-2.0625,-16.9375,0.988953,0.147217,0.01825,0.0,0.0,-0.02,-0.05,-0.35,2.85,9.37,26
3.622229,-0.35,2.83,9.32,-0.0625,0.0,0.125,-32.875,31.0,-60.25,0.0,-2.0625,-16.9375,0.988953,0.147217,0.01825,0.0,0.0,0.0,-0.02,-0.35,2.85,9.37,26
3.633139,-0.35,2.85,9.34,-0.0625,-0.125,-0.125,-34.6875,31.0,-59.875,0.0,-2.0625,-16.9375,0.988953,0.147217,0.01825,0.0,0.0,0.01,-0.01,-0.35,2.85,9.37,26
3.64405,-0.34,2.87,9.35,0.125,0.0625,0.0,-34.6875,31.0,-59.875,0.0,-2.0625,-16.9375,0.988953,0.147217,0.01825,0.0,0.0,0.0,-0.02,-0.35,2.85,9.37,26
3.65496,-0.34,2.85,9.34,0.0625,-0.1875,0.0625,-34.6875,31.0,-59.875,0.0,-2.0625,-16.9375,0.988953,0.147217,0.01825,0.0,0.0,-0.01,0.0,-0.35,2.85,9.37,26
3.66587,-0.35,2.84,9.37,-0.125,-0.125,0.125,-34.6875,31.0,-59.875,0.0,-2.0625,-16.9375,0.988953,0.147217,0.01825,0.0,-0.01,0.0,-0.02,-0.35,2.85,9.37,26
3.676781,-0.36,2.85,9.35,-0.1875,-0.0625,0.0,-34.6875,31.0,-59.875,0.0,-2.0625,-16.9375,0.988953,0.147217,0.01825,0.0,0.0,0.0,-0.01,-0.35,2.85,9.37,26
3.687691,-0.34,2.84,9.35,0.125,-0.125,0.0,-33.25,30.25,-55.75,0.0,-2.0625,-16.9375,0.988953,0.147217,0.01825,0.0,0.01,0.0,-0.04,-0.35,2.85,9.37,26
3.698601,-0.33,2.85,9.33,0.0625,0.0,-0.0625,-33.25,30.25,-55.75,0.0,-2.0625,-16.9375,0.988953,0.147217,0.01825,0.0,0.0,0.0,-0.02,-0.35,2.85,9.37,26
3.709512,-0.34,2.83,9.34,-0.0625,0.0625,0.0625,-33.25,30.25,-55.75,0.0,-2.0625,-16.9375,0.988953,0.147217,0.01825,0.0,0.0,-0.01,-0.02,-0.35,2.85,9.37,26
3.720422,-0.35,2.85,9.36,-0.0625,0.1875,0.0,-33.25,30.25,-55.75,0.0,-2.0625,-16.9375,0.988953,0.147217,0.01825,0.0,0.0,-0.01,-0.01,-0.35,2.85,9.37,26
3.731332,-0.34,2.83,9.36,0.1875,-0.125,0.0625,-33.25,30.25,-55.75,0.0,-2.0625,-16.9375,0.988953,0.147217,0.01825,0.0,0.0,-0.01,-0.01,-0.35,2.85,9.37,26
3.742243,-0.36,2.84,9.36,-0.0625,0.125,0.0625,-36.875,31.0,-55.0,0.0,-2.0625,-16.9375,0.988953,0.147217,0.01825,0.0,-0.01,-0.01,-0.04,-0.35,2.85,9.37,26
3.753153,-0.36,2.84,9.33,-0.1875,-0.0625,0.0,-36.875,31.0,-55.0,0.0,-2.0625,-16.9375,0.988953,0.147217,0.01825,0.0,0.0,0.0,-0.02,-0.35,2.85,9.37,26
3.764063,-0.34,2.85,9.35,-0.0625,0.125,0.0625,-36.875,31.0,-55.0,0.0,-2.0625,-16.9375,0.988953,0.147217,0.01825,0.0,0.0,0.0,-0.04,-0.35,2.85,9.37,26
3.774974,-0.34,2.86,9.33,0.1875,-0.1875,0.0625,-36.875,31.0,-55.0,0.0,-2.0625,-16.9375,0.988953,0.147217,0.01825,0.0,0.0,-0.01,0.0,-0.35,2.85,9.37,26
3.785884,-0.34,2.84,9.36,0.1875,0.1875,-0.125,-36.5625,31.0,-56.25,0.0,-2.0625,-16.9375,0.988953,0.147217,0.01825,0.0,0.0,0.0,-0.04,-0.35,2.85,9.37,26
3.796794,-0.35,2.86,9.35,0.0,-0.375,0.125,-36.5625,31.0,-56.25,0.0,-2.0625,-16.9375,0.988953,0.147217,0.01825,0.0,0.0,0.0,-0.01,-0.35,2.85,9.37,26
3.807705,-0.35,2.85,9.34,-0.0625,-0.125,0.0,-36.5625,31.0,-56.25,0.0,-2.0625,-16.9375,0.988953,0.147217,0.01825,0.0,0.0,0.0,-0.03,-0.35,2.85,9.37,26
3.818615,-0.35,2.86,9.33,-0.125,-0.125,0.0625,-36.5625,31.0,-56.25,0.0,-2.0625,-16.9375,0.988953,0.147217,0.01825,0.0,0.0,0.0,-0.02,-0.35,2.85,9.37,26
3.829525,-0.35,2.86,9.35,0.125,0.0,0.0625,-36.5625,31.0,-56.25,0.0,-2.0625,-16.9375,0.988953,0.147217,0.01825,0.0,0.0,0.0,-0.02,-0.35,2.85,9.37,26
3.840436,-0.34,2.89,9.37,0.125,0.0,0.0625,-38.0625,31.75,-56.25,0.0,-2.0625,-16.9375,0.988953,0.147217,0.01825,0.0,-0.01,0.0,-0.03,-0.35,2.85,9.37,26
3.851346,-0.36,2.84,9.33,-0.125,-0.1875,0.0,-38.0625,31.75,-56.25,0.0,-2.0625,-16.9375,0.988953,0.147217,0.01825,0.0,0.0,0.0,-0.02,-0.35,2.85,9.37,26
3.862256,-0.34,2.85,9.34,0.0625,-0.0625,0.0,-38.0625,31.75,-56.25,0.0,-2.0625,-16.9375,0.988953,0.147217,0.01825,0.0,0.0,0.02,-0.02,-0.35,2.85,9.37,26
3.873167,-0.35,2.88,9.34,0.125,-0.0625,0.0,-38.0625,31.75,-56.25,0.0,-2.0625,-16.9375,0.988953,0.147217,0.01825,0.0,0.01,0.01,-0.04,-0.35,2.85,9.37,26
3.884077,-0.33,2.86,9.33,0.125,0.0625,0.0625,-37.25,31.375,-55.375,0.0,-2.0625,-16.9375,0.988953,0.147217,0.01825,0.0,0.0,0.02,-0.04,-0.35,2.85,9.37,26
3.894987,-0.35,2.86,9.35,-0.125,0.0,0.0,-37.25,31.375,-55.375,0.0,-2.0625,-16.9375,0.988953,0.147217,0.01825,0.0,0.0,0.0,-0.01,-0.35,2.85,9.37,26
3.905898,-0.33,2.84,9.33,0.0,0.0625,0.0625,-37.25,31.375,-55.375,0.0,-2.0625,-16.9375,0.988953,0.147217,0.01825,0.0,0.01,0.0,-0.04,-0.35,2.85,9.37,27
3.916808,-0.33,2.84,9.33,-0.0625,0.1875,-0.0625,-37.25,31.375,-55.375,0.0,-2.0625,-16.9375,0.988953,0.147217,0.01825,0.0,0.0,0.0,0.0,-0.35,2.85,9.37,27
3.927718,-0.35,2.84,9.36,0.0,-0.125,0.0625,-37.25,31.375,-55.375,0.0,-2.0625,-16.9375,0.988953,0.147217,0.01825,0.0,0.0,0.0,0.0,-0.35,2.85,9.37,27
3.938629,-0.34,2.85,9.35,0.0625,-0.125,0.0625,-37.25,31.0,-56.25,0.0,-2.0625,-16.9375,0.988953,0.147217,0.01825,0.0,0.0,0.0,0.0,-0.35,2.85,9.37,27
3.949539,-0.35,2.85,9.36,-0.0625,-0.0625,0.25,-37.25,31.0,-56.25,0.0,-2.0625,-16.9375,0.988953,0.147217,0.01825,0.0,-0.01,0.0,-0.02,-0.35,2.85,9.37,27
3.960449,-0.36,2.85,9.34,0.0,0.0,0.0,-37.25,31.0,-56.25,0.0,-2.0625,-16.9375,0.988953,0.147217,0.01825,0.0,0.0,0.0,-0.03,-0.35,2.85,9.37,27
3.97136,-0.34,2.84,9.34,-0.125,0.125,-0.125,-37.25,31.0,-56.25,0.0,-2.0625,-16.9375,0.988953,0.147217,0.01825,0.0,0.0,0.0,0.0,-0.35,2.85,9.37,27
3.98227,-0.34,2.85,9.36,0.1875,0.3125,0.0625,-36.5625,31.75,-55.75,0.0,-2.0625,-16.9375,0.988953,0.147217,0.01825,0.0,0.0,0.01,-0.01,-0.35,2.85,9.37,27
3.99318,-0.35,2.87,9.34,0.125,0.1875,0.0,-36.5625,31.75,-55.75,0.0,-2.0625,-16.9375,0.988953,0.147217,0.01825,0.0,0.0,0.01,-0.03,-0.35,2.85,9.37,27
4.004091,-0.35,2.87,9.34,-0.1875,-0.0625,0.0625,-36.5625,31.75,-55.75,0.0,-2.0625,-16.9375,0.988953,0.147217,0.01825,0.0,0.0,0.0,-0.03,-0.35,2.85,9.37,27
4.015001,-0.34,2.84,9.33,-0.0625,-0.1875,0.0625,-36.5625,31.75,-55.75,0.0,-2.0625,-16.9375,0.988953,0.147217,0.01825,0.0,-0.01,0.0,-0.02,-0.35,2.85,9.37,27
4.025911,-0.36,2.85,9.34,-0.3125,-0.1875,0.0625,-36.5625,31.75,-55.75,0.0,-2.0625,-16.9375,0.988953,0.147217,0.01825,0.0,-0.01,0.0,-0.02,-0.35,2.85,9.37,27
4.036822,-0.35,2.86,9.35,-0.125,0.0,0.125,-38.75,31.375,-55.875,0.0,-2.0625,-16.9375,0.988953,0.147217,0.01825,0.0,0.0,0.0,0.0,-0.35,2.85,9.37,27
4.047732,-0.34,2.85,9.38,-0.0625,0.125,-0.0625,-38.75,31.375,-55.875,0.0,-2.0625,-16.9375,0.988953,0.147217,0.01825,0.0,0.0,0.0,-0.03,-0.35,2.85,9.37,27
4.058642,-0.34,2.85,9.34,0.25,0.0625,-0.0625,-38.75,31.375,-55.875,0.0,-2.0625,-16.9375,0.988953,0.147217,0.01825,0.0,0.0,0.01,-0.02,-0.35,2.85,9.37,27
4.069553,-0.35,2.86,9.34,-0.0625,0.25,-0.125,-38.75,31.375,-55.875,0.0,-2.0625,-16.9375,0.988953,0.147217,0.01825,0.0,0.0,0.01,-0.01,-0.35,2.85,9.37,27
4.080463,-0.34,2.86,9.35,0.0,0.125,0.0625,-37.6875,32.0625,-55.375,0.0,-2.0625,-16.9375,0.988953,0.147217,0.01825,0.0,0.0,0.01,-0.02,-0.35,2.85,9.37,27
4.091373,-0.35,2.86,9.34,0.0,0.0,0.0,-37.6875,32.0625,-55.375,0.0,-2.0625,-16.9375,0.988953,0.147217,0.01825,0.0,-0.01,0.0,0.0,-0.35,2.85,9.37,27
4.102283,-0.36,2.86,9.37,0.0,0.125,-0.0625,-37.6875,32.0625,-55.375,0.0,-2.0625,-16.9375,0.988953,0.147217,0.01825,0.0,0.0,0.0,-0.07,-0.35,2.85,9.37,27
4.113194,-0.34,2.86,9.34,-0.0625,0.25,0.0,-37.6875,32.0625,-55.375,0.0,-2.0625,-16.9375,0.988953,0.147217,0.01825,0.0,0.0,0.01,-0.02,-0.35,2.85,9.37,27
4.124104,-0.33,2.85,9.38,-0.125,-0.0625,0.125,-37.6875,32.0625,-55.375,0.0,-2.0625,-16.9375,0.988953,0.147217,0.01825,0.0,0.01,0.0,0.0,-0.35,2.85,9.37,27
4.135014,-0.35,2.85,9.37,0.0,-0.1875,0.0,-35.75,31.375,-56.25,0.0,-2.0625,-16.9375,0.988953,0.147217,0.01825,0.0,0.0,0.02,-0.02,-0.35,2.85,9.37,27
4.145925,-0.35,2.88,9.35,0.0625,-0.0625,-0.125,-35.75,31.375,-56.25,0.0,-2.0625,-16.9375,0.988953,0.147217,0.01825,0.0,-0.01,0.0,-0.03,-0.35,2.85,9.37,27
4.156835,-0.36,2.86,9.33,0.0625,-0.1875,-0.0625,-35.75,31.375,-56.25,0.0,-2.0625,-16.9375,0.988953,0.147217,0.01825,0.0,-0.01,-0.03,0.0,-0.35,2.85,9.37,27
4.167745,-0.37,2.82,9.36,-0.0625,0.0,0.0,-35.75,31.375,-56.25,0.0,-2.0625,-16.9375,0.988953,0.147217,0.01825,0.0,0.01,0.0,-0.02,-0.35,2.85,9.37,27
4.178656,-0.33,2.84,9.34,-0.0625,0.1875,0.0,-35.75,31.375,-56.25,0.0,-2.0625,-16.9375,0.988953,0.147217,0.01825,0.0,0.01,0.0,-0.02,-0.35,2.85,9.37,27
4.189566,-0.34,2.87,9.36,0.0,0.0625,-0.0625,-36.5625,31.75,-56.6875,0.0,-2.0625,-16.9375,0.988953,0.147217,0.01825,0.0,-0.01,0.0,-0.03,-0.35,2.85,9.37,27
4.200476,-0.36,2.85,9.33,0.1875,0.125,0.0625,-36.5625,31.75,-56.6875,0.0,-2.0625,-16.9375,0.988953,0.147217,0.01825,0.0,0.01,-0.01,-0.02,-0.35,2.85,9.37,27
4.211387,-0.33,2.84,9.34,-0.0625,-0.25,0.1875,-36.5625,31.75,-56.6875,0.0,-2.0625,-16.9375,0.988953,0.147217,0.01825,0.0,0.0,0.01,-0.02,-0.35,2.85,9.37,27
4.222297,-0.34,2.86,9.34,-0.125,-0.1875,-0.0625,-36.5625,31.75,-56.6875,0.0,-2.0625,-16.9375,0.988953,0.147217,0.01825,0.0,0.0,0.0,0.0,-0.35,2.85,9.37,27
4.233207,-0.34,2.85,9.38,0.0,0.1875,-0.0625,-37.6875,31.75,-55.375,0.0,-2.0625,-16.9375,0.988953,0.147217,0.01825,0.0,0.0,0.0,-0.01,-0.35,2.85,9.37,27
4.244118,-0.34,2.84,9.35,0.0625,0.0,0.125,-37.6875,31.75,-55.375,0.0,-2.0625,-16.9375,0.988953,0.147217,0.01825,0.0,-0.01,0.0,0.0,-0.35,2.85,9.37,27
4.255028,-0.36,2.85,9.36,-0.0625,0.0625,0.125,-37.6875,31.75,-55.375,0.0,-2.0625,-16.9375,0.988953,0.147217,0.01825,0.0,0.0,0.0,-0.01,-0.35,2.85,9.37,27
4.265938,-0.35,2.86,9.35,-0.25,-0.3125,-0.0625,-37.6875,31.75,-55.375,0.0,-2.0625,-16.9375,0.988953,0.147217,0.01825,0.0,0.0,0.0,-0.03,-0.35,2.85,9.37,27
4.276849,-0.34,2.86,9.33,0.125,-0.125,0.0625,-37.6875,31.75,-55.375,0.0,-2.0625,-16.9375,0.988953,0.147217,0.01825,0.0,0.0,0.0,-0.04,-0.35,2.85,9.37,27
4.287759,-0.34,2.85,9.33,-0.125,-0.0625,-0.0625,-38.75,31.75,-56.25,0.0,-2.0625,-16.9375,0.988953,0.147217,0.01825,0.0,0.0,0.0,-0.03,-0.35,2.85,9.37,27
4.298669,-0.35,2.86,9.34,0.0,-0.1875,-0.0625,-38.75,31.75,-56.25,0.0,-2.0625,-16.9375,0.988953,0.147217,0.01825,0.0,-0.01,-0.01,-0.02,-0.35,2.85,9.37,27
4.30958,-0.36,2.84,9.34,-0.125,-0.125,0.0625,-38.75,31.75,-56.25,0.0,-2.0625,-16.9375,0.988953,0.147217,0.01825,0.0,0.0,0.0,-0.01,-0.35,2.85,9.37,27
4.32049,-0.34,2.84,9.36,0.0,-0.125,0.125,-38.75,31.75,-56.25,0.0,-2.0625,-16.9375,0.988953,0.147217,0.01825,0.0,0.0,0.0,-0.01,-0.35,2.85,9.37,27
4.3314,-0.34,2.85,9.36,-0.1875,-0.1875,0.0,-38.75,31.75,-56.25,0.0,-2.0625,-16.9375,0.988953,0.147217,0.01825,0.0,0.0,0.01,-0.03,-0.35,2.85,9.37,27
4.342311,-0.34,2.86,9.34,-0.0625,-0.3125,0.0625,-36.875,31.75,-56.6875,0.0,-2.0625,-16.9375,0.988953,0.147217,0.01825,0.0,0.0,0.01,-0.02,-0.35,2.85,9.37,27
4.353221,-0.34,2.85,9.35,0.125,0.0625,0.0625,-36.875,31.75,-56.6875,0.0,-2.0625,-16.9375,0.988953,0.147217,0.01825,0.0,0.0,0.0,-0.01,-0.35,2.85,9.37,27
4.364131,-0.34,2.86,9.32,0.0,0.25,0.0625,-36.875,31.75,-56.6875,0.0,-2.0625,-16.9375,0.988953,0.147217,0.01825,0.0,0.0,0.0,-0.03,-0.35,2.85,9.37,27
4.375042,-0.35,2.85,9.33,0.125,0.1875,0.0,-36.875,31.75,-56.6875,0.0,-2.0625,-16.9375,0.988953,0.147217,0.01825,0.0,0.0,-0.01,-0.03,-0.35,2.85,9.37,27
4.385952,-0.35,2.84,9.33,0.0,0.375,-0.125,-36.875,31.75,-56.6875,0.0,-2.0625,-16.9375,0.988953,0.147217,0.01825,0.0,0.0,-0.01,-0.03,-0.35,2.85,9.37,27
4.396862,-0.33,2.84,9.32,0.0,0.1875,-0.0625,-36.875,32.875,-57.0625,0.0,-2.0625,-16.9375,0.988953,0.147217,0.01825,0.0,-0.01,0.0,0.0,-0.35,2.85,9.37,27
4.407773,-0.36,2.86,9.37,0.0625,0.125,0.0625,-36.875,32.875,-57.0625,0.0,-2.0625,-16.9375,0.988953,0.147217,0.01825,0.0,0.0,-0.01,-0.04,-0.35,2.85,9.37,27
4.418683,-0.34,2.84,9.32,-0.125,0.125,0.0,-36.875,32.875,-57.0625,0.0,-2.0625,-16.9375,0.988953,0.147217,0.01825,0.0,-0.01,0.01,-0.01,-0.35,2.85,9.37,27
4.429593,-0.36,2.87,9.35,0.0,0.25,0.0,-36.875,32.875,-57.0625,0.0,-2.0625,-16.9375,0.988953,0.147217,0.01825,0.0,0.0,0.0,-0.01,-0.35,2.85,9.37,27
4.440504,-0.35,2.86,9.35,0.1875,0.25,0.0625,-33.5625,30.5625,-56.25,0.0,-2.0625,-16.9375,0.988953,0.147217,0.01825,0.0,0.0,0.0,-0.02,-0.35,2.85,9.37,27
4.451414,-0.35,2.85,9.35,0.0625,0.1875,-0.0625,-33.5625,30.5625,-56.25,0.0,-2.0625,-16.9375,0.988953,0.147217,0.01825,0.0,0.0,0.0,-0.02,-0.35,2.85,9.37,27
4.462324,-0.35,2.86,9.33,0.0,-0.25,0.0625,-33.5625,30.5625,-56.25,0.0,-2.0625,-16.9375,0.988953,0.147217,0.01825,0.0,-0.01,0.0,-0.04,-0.35,2.85,9.37,27
4.473235,-0.36,2.85,9.33,0.0,-0.125,0.0,-33.5625,30.5625,-56.25,0.0,-2.0625,-16.9375,0.988953,0.147217,0.01825,0.0,0.0,0.0,-0.02,-0.35,2.85,9.37,27
4.484145,-0.35,2.85,9.35,0.125,0.125,0.125,-33.5625,30.5625,-56.25,0.0,-2.0625,-16.9375,0.988953,0.147217,0.01825,0.0,0.0,0.0,-0.02,-0.35,2.85,9.37,27
4.495055,-0.34,2.85,9.39,0.0625,-0.125,0.125,-37.25,31.375,-55.75,0.0,-2.0625,-16.9375,0.988953,0.147217,0.01825,0.0,0.01,0.0,-0.03,-0.35,2.85,9.37,27
4.505966,-0.33,2.85,9.34,-0.0625,-0.25,0.0,-37.25,31.375,-55.75,0.0,-2.0625,-16.9375,0.988953,0.147217,0.01825,0.0,-0.01,0.01,-0.04,-0.35,2.85,9.37,27
4.516876,-0.36,2.86,9.32,0.125,-0.0625,0.0,-37.25,31.375,-55.75,0.0,-2.0625,-16.9375,0.988953,0.147217,0.01825,0.0,0.01,0.0,0.0,-0.35,2.85,9.37,27
4.527786,-0.33,2.84,9.37,0.25,0.0625,-0.0625,-37.25,31.375,-55.75,0.0,-2.0625,-16.9375,0.988953,0.147217,0.01825,0.0,0.0,0.01,-0.01,-0.35,2.85,9.37,27
4.538697,-0.35,2.87,9.36,0.0625,-0.125,0.0,-36.875,31.375,-56.25,0.0,-2.0625,-16.9375,0.988953,0.147217,0.01825,0.0,0.0,0.01,-0.01,-0.35,2.85,9.37,27
4.549607,-0.34,2.84,9.34,-0.25,-0.125,0.0625,-36.875,31.375,-56.25,0.0,-2.0625,-16.9375,0.988953,0.147217,0.01825,0.0,0.0,-0.01,-0.03,-0.35,2.85,9.37,27
4.560517,-0.35,2.86,9.34,-0.0625,0.0625,-0.0625,-36.875,31.375,-56.25,0.0,-2.0625,-16.9375,0.988953,0.147217,0.01825,0.0,0.0,0.0,-0.01,-0.35,2.85,9.37,27
4.571428,-0.34,2.86,9.35,0.125,-0.0625,0.0625,-36.875,31.375,-56.25,0.0,-2.0625,-16.9375,0.988953,0.147217,0.01825,0.0,-0.01,0.01,-0.04,-0.35,2.85,9.37,27
4.582338,-0.36,2.86,9.33,0.0625,0.125,0.0,-36.875,31.375,-56.25,0.0,-2.0625,-16.9375,0.988953,0.147217,0.01825,0.0,-0.01,0.01,-0.04,-0.35,2.85,9.37,27
4.593248,-0.34,2.87,9.34,0.0625,0.125,0.0625,-37.25,32.5,-55.875,0.0,-2.0625,-16.9375,0.988953,0.147217,0.01825,0.0,0.0,0.0,-0.03,-0.35,2.85,9.37,27
4.604159,-0.35,2.84,9.33,0.0,0.125,0.125,-37.25,32.5,-55.875,0.0,-2.0625,-16.9375,0.988953,0.147217,0.01825,0.0,0.01,0.0,0.0,-0.35,2.85,9.37,27
4.615069,-0.33,2.84,9.36,0.25,0.125,0.0,-37.25,32.5,-55.875,0.0,-2.0625,-16.9375,0.988953,0.147217,0.01825,0.0,0.0,0.0,-0.03,-0.35,2.85,9.37,27
4.625979,-0.34,2.85,9.34,-0.125,0.0,-0.125,-37.25,32.5,-55.875,0.0,-2.0625,-16.9375,0.988953,0.147217,0.01825,0.0,0.0,-0.02,-0.02,-0.35,2.85,9.37,27
4.63689,-0.35,2.83,9.35,-0.0625,-0.0625,-0.0625,-37.25,31.375,-56.25,0.0,-2.0625,-16.9375,0.988953,0.147217,0.01825,0.0,0.0,0.01,-0.02,-0.35,2.85,9.37,27
4.6478,-0.35,2.86,9.35,0.0,-0.1875,-0.0625,-37.25,31.375,-56.25,0.0,-2.0625,-16.9375,0.988953,0.147217,0.01825,0.0,0.0,-0.01,0.0,-0.35,2.85,9.37,27
4.65871,-0.35,2.83,9.36,-0.0625,-0.125,-0.0625,-37.25,31.375,-56.25,0.0,-2.0625,-16.9375,0.988953,0.147217,0.01825,0.0,0.0,-0.02,-0.02,-0.35,2.85,9.37,27
4.669621,-0.34,2.82,9.35,0.1875,-0.0625,0.0,-37.25,31.375,-56.25,0.0,-2.0625,-16.9375,0.988953,0.147217,0.01825,0.0,0.0,0.01,-0.03,-0.35,2.85,9.37,27
4.680531,-0.34,2.87,9.34,0.125,-0.0625,0.0,-37.25,31.375,-56.25,0.0,-2.0625,-16.9375,0.988953,0.147217,0.01825,0.0,0.0,0.0,0.0,-0.35,2.85,9.37,27
4.691441,-0.35,2.86,9.37,0.1875,0.25,-0.0625,-33.25,30.25,-60.6875,0.0,-2.0625,-16.9375,0.988953,0.147217,0.01825,0.0,-0.01,0.02,-0.01,-0.35,2.85,9.37,27
4.702352,-0.36,2.87,9.35,-0.0625,0.1875,0.1875,-33.25,30.25,-60.6875,0.0,-2.0625,-16.9375,0.988953,0.147217,0.01825,0.0,0.01,-0.01,-0.02,-0.35,2.85,9.37,27
4.713262,-0.33,2.84,9.34,0.0,0.0,-0.125,-33.25,30.25,-60.6875,0.0,-2.0625,-16.9375,0.988953,0.147217,0.01825,0.0,-0.01,0.0,-0.04,-0.35,2.85,9.37,27
4.724172,-0.36,2.86,9.33,0.0625,0.0,0.0,-33.25,30.25,-60.6875,0.0,-2.0625,-16.9375,0.988953,0.147217,0.01825,0.0,-0.01,0.01,-0.02,-0.35,2.85,9.37,27
4.735083,-0.37,2.86,9.34,-0.1875,-0.0625,-0.0625,-33.25,30.25,-60.6875,0.0,-2.0625,-16.9375,0.988953,0.147217,0.01825,0.0,0.01,0.01,-0.03,-0.35,2.85,9.37,27
4.745993,-0.33,2.86,9.34,0.125,0.1875,0.0,-34.375,31.0,-61.5,0.0,-2.0625,-16.9375,0.988953,0.147217,0.01825,0.0,0.0,-0.01,0.0,-0.35,2.85,9.37,27
4.756903,-0.36,2.85,9.34,0.0,0.0625,0.0,-34.375,31.0,-61.5,0.0,-2.0625,-16.9375,0.988953,0.147217,0.01825,0.0,-0.01,0.0,-0.02,-0.35,2.85,9.37,27
4.767814,-0.33,2.85,9.33,0.0625,0.0,0.0,-34.375,31.0,-61.5,0.0,-2.0625,-16.9375,0.988953,0.147217,0.01825,0.0,0.0,0.04,-0.02,-0.35,2.85,9.37,27
4.778724,-0.34,2.89,9.35,0.125,0.0,0.0,-34.375,31.0,-61.5,0.0,-2.0625,-16.9375,0.988953,0.147217,0.01825,0.0,-0.01,0.02,-0.01,-0.35,2.85,9.37,27
4.789634,-0.36,2.87,9.35,0.1875,0.25,0.0625,-34.375,31.0,-61.5,0.0,-2.0625,-16.9375,0.988953,0.147217,0.01825,0.0,-0.01,0.02,-0.01,-0.35,2.85,9.37,27
4.800545,-0.33,2.85,9.36,-0.125,-0.25,0.0625,-34.0,29.875,-59.875,0.0,-2.0625,-16.9375,0.988953,0.147217,0.01825,0.0,-0.01,0.01,-0.03,-0.35,2.85,9.37,27
4.811455,-0.36,2.87,9.33,0.0,-0.0625,0.0625,-34.0,29.875,-59.875,0.0,-2.0625,-16.9375,0.988953,0.147217,0.01825,0.0,0.0,0.0,-0.01,-0.35,2.85,9.37,27
4.822365,-0.35,2.86,9.35,-0.0625,0.125,0.0625,-34.0,29.875,-59.875,0.0,-2.0625,-16.9375,0.988953,0.147217,0.01825,0.0,0.01,-0.02,-0.03,-0.35,2.85,9.37,27
4.833275,-0.33,2.83,9.33,0.0,0.375,0.125,-34.0,29.875,-59.875,0.0,-2.0625,-16.9375,0.988953,0.147217,0.01825,0.0,0.0,0.0,-0.03,-0.35,2.85,9.37,27
4.844186,-0.35,2.84,9.34,0.0625,0.25,-0.0625,-35.375,30.5625,-60.25,0.0,-2.0625,-16.9375,0.988953,0.147217,0.01825,0.0,0.0,0.02,-0.01,-0.35,2.85,9.37,27
4.855096,-0.36,2.86,9.36,0.125,-0.0625,-0.0625,-35.375,30.5625,-60.25,0.0,-2.0625,-16.9375,0.988953,0.147217,0.01825,0.0,-0.01,0.01,-0.01,-0.35,2.85,9.37,27
4.866006,-0.34,2.85,9.33,0.1875,0.0,0.0625,-35.375,30.5625,-60.25,0.0,-2.0625,-16.9375,0.988953,0.147217,0.01825,0.0,-0.01,0.01,0.0,-0.35,2.85,9.37,27
4.876917,-0.36,2.86,9.37,0.0625,0.0,0.0625,-35.375,30.5625,-60.25,0.0,-2.0625,-16.9375,0.988953,0.147217,0.01825,0.0,0.0,0.03,-0.02,-0.35,2.85,9.37,27
4.887827,-0.35,2.88,9.35,0.25,0.0,0.0625,-35.375,30.5625,-60.25,0.0,-2.0625,-16.9375,0.988953,0.147217,0.01825,0.0,0.0,0.03,-0.02,-0.35,2.85,9.37,27
4.898737,-0.34,2.85,9.34,-0.0625,0.0625,0.0,-33.5625,30.25,-59.875,0.0,-2.0625,-16.9375,0.988953,0.147217,0.01825,0.0,0.01,0.0,-0.02,-0.35,2.85,9.37,27
4.909648,-0.33,2.85,9.34,-0.125,-0.125,0.125,-33.5625,30.25,-59.875,0.0,-2.0625,-16.9375,0.988953,0.147217,0.01825,0.0,0.0,0.01,-0.02,-0.35,2.85,9.37,27
4.920558,-0.34,2.86,9.35,-0.125,0.0,-0.0625,-33.5625,30.25,-59.875,0.0,-2.0625,-16.9375,0.988953,0.147217,0.01825,0.0,0.0,0.0,0.0,-0.35,2.85,9.37,27
4.931468,-0.35,2.85,9.36,0.0,0.0,0.125,-33.5625,30.25,-59.875,0.0,-2.0625,-16.9375,0.988953,0.147217,0.01825,0.0,0.0,0.0,-0.01,-0.35,2.85,9.37,27
4.942379,-0.35,2.85,9.36,-0.1875,-0.0625,0.0,-37.25,32.5,-55.375,0.0,-2.0625,-16.9375,0.988953,0.147217,0.01825,0.0,0.01,-0.01,0.0,-0.35,2.85,9.37,27
4.953289,-0.35,2.86,9.37,-0.1875,-0.25,0.0,-37.25,32.5,-55.375,0.0,-2.0625,-16.9375,0.988953,0.147217,0.01825,0.0,0.0,0.01,0.0,-0.35,2.85,9.37,27
4.964199,-0.36,2.84,9.35,0.0,-0.0625,0.0,-37.25,32.5,-55.375,0.0,-2.0625,-16.9375,0.988953,0.147217,0.01825,0.0,-0.01,0.0,-0.02,-0.35,2.85,9.37,27
4.97511,-0.34,2.86,9.34,0.125,-0.0625,0.0625,-37.25,32.5,-55.375,0.0,-2.0625,-16.9375,0.988953,0.147217,0.01825,0.0,0.01,0.02,-0.03,-0.35,2.85,9.37,27
4.98602,-0.33,2.87,9.34,-0.125,0.0,-0.0625,-37.25,32.5,-55.375,0.0,-2.0625,-16.9375,0.988953,0.147217,0.01825,0.0,0.01,0.02,-0.03,-0.35,2.85,9.37,27
4.99693,-0.34,2.85,9.36,-0.25,-0.0625,0.0625,-36.5625,32.0625,-56.6875,0.0,-2.0625,-16.9375,0.988953,0.147217,0.01825,0.0,-0.01,0.0,0.0,-0.35,2.85,9.37,27
5.007841,-0.36,2.84,9.37,-0.0625,0.125,-0.0625,-36.5625,32.0625,-56.6875,0.0,-2.0625,-16.9375,0.988953,0.147217,0.01825,0.0,0.0,0.0,-0.01,-0.35,2.85,9.37,27
5.018751,-0.34,2.85,9.36,-0.0625,-0.0625,-0.0625,-36.5625,32.0625,-56.6875,0.0,-2.0625,-16.9375,0.988953,0.147217,0.01825,0.0,0.0,0.0,-0.02,-0.35,2.85,9.37,27
5.029661,-0.34,2.86,9.34,-0.0625,0.1875,0.0625,-36.5625,32.0625,-56.6875,0.0,-2.0625,-16.9375,0.988953,0.147217,0.01825,0.0,-0.01,0.0,0.0,-0.35,2.85,9.37,27
5.040572,-0.36,2.84,9.37,0.0,0.3125,0.0,-34.0,30.25,-60.25,0.0,-2.0625,-16.9375,0.988953,0.147217,0.01825,0.0,0.0,0.02,0.0,-0.35,2.85,9.37,27
5.051482,-0.35,2.87,9.37,0.0625,0.1875,0.0625,-34.0,30.25,-60.25,0.0,-2.0625,-16.9375,0.988953,0.147217,0.01825,0.0,0.0,0.0,-0.04,-0.35,2.85,9.37,27
5.062392,-0.34,2.84,9.32,0.0,0.125,-0.0625,-34.0,30.25,-60.25,0.0,-2.0625,-16.9375,0.988953,0.147217,0.01825,0.0,0.0,0.01,-0.04,-0.35,2.85,9.37,27
5.073303,-0.35,2.86,9.32,-0.0625,0.0625,-0.125,-34.0,30.25,-60.25,0.0,-2.0625,-16.9375,0.988953,0.147217,0.01825,0.0,0.0,0.0,-0.03,-0.35,2.85,9.37,27
5.084213,-0.34,2.84,9.34,-0.0625,0.0,0.125,-34.0,30.25,-60.25,0.0,-2.0625,-16.9375,0.988953,0.147217,0.01825,0.0,0.0,0.01,0.01,-0.35,2.85,9.37,27
5.095123,-0.35,2.87,9.38,0.0,-0.0625,-0.0625,-37.25,31.375,-56.25,0.0,-2.0625,-16.9375,0.988953,0.147217,0.01825,0.0,0.0,0.0,-0.02,-0.35,2.85,9.37,27
5.106034,-0.33,2.85,9.34,0.3125,0.25,0.0,-37.25,31.375,-56.25,0.0,-2.0625,-16.9375,0.988953,0.147217,0.01825,0.0,0.01,0.0,-0.02,-0.35,2.85,9.37,27
5.116944,-0.36,2.84,9.32,0.0,0.3125,0.125,-37.25,31.375,-56.25,0.0,-2.0625,-16.9375,0.988953,0.147217,0.01825,0.0,0.0,0.01,0.0,-0.35,2.85,9.37,27
5.127854,-0.34,2.86,9.37,0.125,-0.125,-0.0625,-37.25,31.375,-56.25,0.0,-2.0625,-16.9375,0.988953,0.147217,0.01825,0.0,0.0,-0.02,0.0,-0.35,2.85,9.37,27
5.138765,-0.35,2.83,9.36,0.0,0.0,0.125,-37.25,31.375,-56.25,0.0,-2.0625,-16.9375,0.988953,0.147217,0.01825,0.0,0.0,-0.02,0.0,-0.35,2.85,9.37,27
5.149675,-0.35,2.85,9.31,0.0625,-0.0625,0.0625,-36.5625,31.75,-56.25,0.0,-2.0625,-16.9375,0.988953,0.147217,0.01825,0.0,0.0,0.01,0.0,-0.35,2.85,9.37,27
5.160585,-0.35,2.86,9.37,0.125,0.0625,0.125,-36.5625,31.75,-56.25,0.0,-2.0625,-16.9375,0.988953,0.147217,0.01825,0.0,0.0,-0.02,0.0,-0.35,2.85,9.37,27
5.171496,-0.35,2.83,9.37,-0.1875,-0.125,-0.0625,-36.5625,31.75,-56.25,0.0,-2.0625,-16.9375,0.988953,0.147217,0.01825,0.0,0.01,0.0,-0.01,-0.35,2.85,9.37,27
5.182406,-0.33,2.85,9.35,-0.125,-0.125,-0.0625,-36.5625,31.75,-56.25,0.0,-2.0625,-16.9375,0.988953,0.147217,0.01825,0.0,0.0,-0.01,-0.04,-0.35,2.85,9.37,27
5.193316,-0.34,2.84,9.33,-0.0625,0.125,-0.0625,-37.25,31.375,-55.875,0.0,-2.0625,-16.9375,0.988953,0.147217,0.01825,0.0,0.0,0.0,-0.02,-0.35,2.85,9.37,27
5.204227,-0.35,2.86,9.35,0.0625,0.0625,0.125,-37.25,31.375,-55.875,0.0,-2.0625,-16.9375,0.988953,0.147217,0.01825,0.0,0.0,0.02,-0.01,-0.35,2.85,9.37,27
5.215137,-0.35,2.87,9.35,0.0,0.0,-0.0625,-37.25,31.375,-55.875,0.0,-2.0625,-16.9375,0.988953,0.147217,0.01825,0.0,0.0,0.0,-0.02,-0.35,2.85,9.37,27
5.226047,-0.34,2.85,9.34,0.0,-0.25,0.0625,-37.25,31.375,-55.875,0.0,-2.0625,-16.9375,0.988953,0.147217,0.01825,0.0,0.0,0.0,-0.03,-0.35,2.85,9.37,27
5.236958,-0.34,2.84,9.34,0.1875,-0.0625,0.0625,-37.25,31.375,-55.875,0.0,-2.0625,-16.9375,0.988953,0.147217,0.01825,0.0,-0.01,-0.02,-0.01,-0.35,2.85,9.37,27
5.247868,-0.36,2.82,9.35,0.1875,0.0,0.0625,-37.6875,31.375,-55.375,0.0,-2.0625,-16.9375,0.988953,0.147217,0.01825,0.0,0.0,0.0,-0.02,-0.35,2.85,9.37,27
5.258778,-0.34,2.84,9.39,-0.0625,0.125,0.0,-37.6875,31.375,-55.375,0.0,-2.0625,-16.9375,0.988953,0.147217,0.01825,0.0,0.0,-0.01,0.01,-0.35,2.85,9.37,27
5.269689,-0.33,2.85,9.33,0.1875,0.125,0.0625,-37.6875,31.375,-55.375,0.0,-2.0625,-16.9375,0.988953,0.147217,0.01825,0.0,-0.01,0.0,-0.02,-0.35,2.85,9.37,27
5.280599,-0.36,2.85,9.34,0.125,0.0625,0.0625,-37.6875,31.375,-55.375,0.0,-2.0625,-16.9375,0.988953,0.147217,0.01825,0.0,0.0,0.03,0.0,-0.35,2.85,9.37,27
5.291509,-0.34,2.88,9.36,-0.1875,-0.0625,-0.125,-37.6875,31.375,-55.375,0.0,-2.0625,-16.9375,0.988953,0.147217,0.01825,0.0,0.0,0.03,0.0,-0.35,2.85,9.37,27
5.30242,-0.36,2.83,9.37,-0.0625,0.0,0.0,-38.0625,31.375,-56.25,0.0,-2.0625,-16.9375,0.988953,0.147217,0.01825,0.0,0.01,0.02,-0.01,-0.35,2.85,9.37,27
5.31333,-0.33,2.87,9.36,0.0625,0.125,0.0625,-38.0625,31.375,-56.25,0.0,-2.0625,-16.9375,0.988953,0.147217,0.01825,0.0,0.0,0.0,-0.02,-0.35,2.85,9.37,27
5.32424,-0.35,2.85,9.35,0.0,0.0,-0.0625,-38.0625,31.375,-56.25,0.0,-2.0625,-16.9375,0.988953,0.147217,0.01825,0.0,0.0,0.01,-0.03,-0.35,2.85,9.37,27
5.335151,-0.34,2.86,9.33,0.125,0.0625,0.0,-38.0625,31.375,-56.25,0.0,-2.0625,-16.9375,0.988953,0.147217,0.01825,0.0,0.0,0.0,-0.04,-0.35,2.85,9.37,27
5.346061,-0.34,2.85,9.32,0.0625,0.3125,-0.0625,-36.875,30.5625,-54.25,0.0,-2.0625,-16.9375,0.988953,0.147217,0.01825,0.0,0.0,0.02,-0.03,-0.35,2.85,9.37,27
5.356971,-0.35,2.88,9.34,0.1875,-0.0625,0.0,-36.875,30.5625,-54.25,0.0,-2.0625,-16.9375,0.988953,0.147217,0.01825,0.0,-0.01,0.0,-0.02,-0.35,2.85,9.37,27
5.367882,-0.34,2.86,9.34,-0.0625,0.0,-0.0625,-36.875,30.5625,-54.25,0.0,-2.0625,-16.9375,0.988953,0.147217,0.01825,0.0,0.0,0.0,-0.02,-0.35,2.85,9.37,27
5.378792,-0.36,2.85,9.35,-0.125,-0.0625,0.0,-36.875,30.5625,-54.25,0.0,-2.0625,-16.9375,0.988953,0.147217,0.01825,0.0,-0.01,0.0,-0.02,-0.35,2.85,9.37,27
5.389702,-0.35,2.85,9.36,-0.125,0.25,0.0625,-36.875,30.5625,-54.25,0.0,-2.0625,-16.9375,0.988953,0.147217,0.01825,0.0,0.0,0.0,-0.01,-0.35,2.85,9.37,27
5.400613,-0.33,2.84,9.35,0.125,0.0625,0.0,-38.0625,31.75,-55.375,0.0,-2.0625,-16.9375,0.988953,0.147217,0.01825,0.0,0.01,-0.02,-0.02,-0.35,2.85,9.37,27
5.411523,-0.33,2.83,9.35,-0.0625,-0.5625,-0.0625,-38.0625,31.75,-55.375,0.0,-2.0625,-16.9375,0.988953,0.147217,0.01825,0.0,0.0,0.0,-0.02,-0.35,2.85,9.37,27
5.422433,-0.35,2.84,9.34,0.0625,0.0,0.0,-38.0625,31.75,-55.375,0.0,-2.0625,-16.9375,0.988953,0.147217,0.01825,0.0,0.0,0.0,-0.01,-0.35,2.85,9.37,27
5.433344,-0.34,2.86,9.35,0.0,0.125,0.0,-38.0625,31.75,-55.375,0.0,-2.0625,-16.9375,0.988953,0.147217,0.01825,0.0,0.0,-0.01,-0.02,-0.35,2.85,9.37,27
5.444254,-0.34,2.84,9.34,-0.125,0.1875,-0.0625,-37.25,31.75,-55.5,0.0,-2.0625,-16.9375,0.988953,0.147217,0.01825,0.0,0.01,0.0,-0.01,-0.35,2.85,9.37,27
5.455164,-0.34,2.87,9.34,-0.0625,-0.125,-0.0625,-37.25,31.75,-55.5,0.0,-2.0625,-16.9375,0.988953,0.147217,0.01825,0.0,0.0,0.01,-0.02,-0.35,2.85,9.37,27
5.466075,-0.34,2.87,9.36,0.0625,0.0625,0.0,-37.25,31.75,-55.5,0.0,-2.0625,-16.9375,0.988953,0.147217,0.01825,0.0,-0.01,0.01,-0.04,-0.35,2.85,9.37,27
5.476985,-0.36,2.86,9.32,-0.0625,0.25,-0.0625,-37.25,31.75,-55.5,0.0,-2.0625,-16.9375,0.988953,0.147217,0.01825,0.0,0.0,0.0,-0.03,-0.35,2.85,9.37,27
5.487895,-0.35,2.84,9.34,0.0,0.1875,0.0,-37.25,31.75,-55.5,0.0,-2.0625,-16.9375,0.988953,0.147217,0.01825,0.0,0.0,0.0,-0.03,-0.35,2.85,9.37,27
5.498806,-0.35,2.85,9.35,0.125,-0.0625,0.0,-38.0625,31.75,-54.6875,0.0,-2.0625,-16.9375,0.988953,0.147217,0.01825,0.0,0.0,0.0,-0.03,-0.35,2.85,9.37,27
5.509716,-0.34,2.84,9.34,0.125,0.3125,0.0,-38.0625,31.75,-54.6875,0.0,-2.0625,-16.9375,0.988953,0.147217,0.01825,0.0,0.0,-0.01,-0.03,-0.35,2.85,9.37,27
5.520626,-0.35,2.83,9.34,0.125,-0.125,0.125,-38.0625,31.75,-54.6875,0.0,-2.0625,-16.9375,0.988953,0.147217,0.01825,0.0,0.0,-0.01,-0.03,-0.35,2.85,9.37,27
5.531537,-0.34,2.84,9.33,0.3125,0.125,0.0,-38.0625,31.75,-54.6875,0.0,-2.0625,-16.9375,0.988953,0.147217,0.01825,0.0,0.0,0.0,0.0,-0.35,2.85,9.37,27
5.542447,-0.35,2.84,9.37,-0.0625,0.0,0.0,-36.875,31.375,-56.25,0.0,-2.0625,-16.9375,0.988953,0.147217,0.01825,0.0,0.0,0.01,-0.04,-0.35,2.85,9.37,27
5.553357,-0.36,2.86,9.37,-0.125,-0.375,-0.0625,-36.875,31.375,-56.25,0.0,-2.0625,-16.9375,0.988953,0.147217,0.01825,0.0,-0.01,0.01,0.0,-0.35,2.85,9.37,27
5.564268,-0.35,2.84,9.35,-0.0625,0.0,0.0,-36.875,31.375,-56.25,0.0,-2.0625,-16.9375,0.988953,0.147217,0.01825,0.0,0.0,0.0,-0.01,-0.35,2.85,9.37,27
5.575178,-0.34,2.85,9.36,0.25,0.3125,0.0625,-36.875,31.375,-56.25,0.0,-2.0625,-16.9375,0.988953,0.147217,0.01825,0.0,0.0,0.0,-0.02,-0.35,2.85,9.37,27
5.586088,-0.34,2.85,9.35,0.3125,0.0625,-0.0625,-36.875,31.375,-56.25,0.0,-2.0625,-16.9375,0.988953,0.147217,0.01825,0.0,0.0,0.0,-0.02,-0.35,2.85,9.37,27
5.596998,-0.35,2.84,9.36,-0.25,-0.0625,0.0,-38.0625,32.5,-55.5,0.0,-2.0625,-16.9375,0.988953,0.147217,0.01825,0.0,0.0,0.01,0.0,-0.35,2.85,9.37,27
5.607909,-0.35,2.86,9.36,-0.125,-0.0625,0.0,-38.0625,32.5,-55.5,0.0,-2.0625,-16.9375,0.988953,0.147217,0.01825,0.0,0.01,0.0,0.0,-0.35,2.85,9.37,27
5.618819,-0.33,2.85,9.37,0.125,0.0625,0.0,-38.0625,32.5,-55.5,0.0,-2.0625,-16.9375,0.988953,0.147217,0.01825,0.0,0.0,0.0,-0.01,-0.35,2.85,9.37,27
5.629729,-0.35,2.85,9.35,0.0625,0.1875,0.0,-38.0625,32.5,-55.5,0.0,-2.0625,-16.9375,0.988953,0.147217,0.01825,0.0,-0.01,0.01,-0.02,-0.35,2.85,9.37,27
5.64064,-0.36,2.87,9.34,0.0,0.1875,-0.0625,-34.0,29.875,-60.25,0.0,-2.0625,-16.9375,0.988953,0.147217,0.01825,0.0,-0.01,0.0,-0.01,-0.35,2.85,9.37,27
5.65155,-0.36,2.86,9.35,0.0,0.0625,0.0,-34.0,29.875,-60.25,0.0,-2.0625,-16.9375,0.988953,0.147217,0.01825,0.0,0.0,0.0,-0.01,-0.35,2.85,9.37,27
5.66246,-0.35,2.84,9.35,0.0625,-0.25,0.0625,-34.0,29.875,-60.25,0.0,-2.0625,-16.9375,0.988953,0.147217,0.01825,0.0,0.0,-0.01,-0.06,-0.35,2.85,9.37,27
5.673371,-0.34,2.84,9.31,-0.0625,-0.1875,-0.125,-34.0,29.875,-60.25,0.0,-2.0625,-16.9375,0.988953,0.147217,0.01825,0.0,-0.01,0.0,0.0,-0.35,2.85,9.37,27
5.684281,-0.37,2.85,9.36,0.0,0.0,-0.125,-34.0,29.875,-60.25,0.0,-2.0625,-16.9375,0.988953,0.147217,0.01825,0.0,0.0,0.0,0.0,-0.35,2.85,9.37,27
5.695191,-0.34,2.85,9.37,0.0,0.0,-0.0625,-37.25,31.375,-56.25,0.0,-2.0625,-16.9375,0.988953,0.147217,0.01825,0.0,0.0,0.0,0.0,-0.35,2.85,9.37,27
5.706102,-0.34,2.86,9.35,0.0,0.0625,-0.0625,-37.25,31.375,-56.25,0.0,-2.0625,-16.9375,0.988953,0.147217,0.01825,0.0,0.0,0.0,-0.02,-0.35,2.85,9.37,27
5.717012,-0.35,2.84,9.33,-0.0625,-0.0625,0.0625,-37.25,31.375,-56.25,0.0,-2.0625,-16.9375,0.988953,0.147217,0.01825,0.0,0.0,0.0,-0.02,-0.35,2.85,9.37,27
5.727922,-0.35,2.85,9.34,0.25,0.125,-0.0625,-37.25,31.375,-56.25,0.0,-2.0625,-16.9375,0.988953,0.147217,0.01825,0.0,0.0,0.0,0.0,-0.35,2.85,9.37,27
5.738833,-0.35,2.84,9.36,0.0625,0.0,-0.0625,-37.25,31.375,-56.25,0.0,-2.0625,-16.9375,0.988953,0.147217,0.01825,0.0,0.0,0.0,0.0,-0.35,2.85,9.37,27
5.749743,-0.34,2.84,9.36,-0.1875,-0.1875,0.0625,-38.375,31.375,-55.875,0.0,-2.0625,-16.9375,0.988953,0.147217,0.01825,0.0,0.0,-0.01,-0.01,-0.35,2.85,9.37,27
5.760653,-0.34,2.83,9.36,-0.0625,0.3125,0.0,-38.375,31.375,-55.875,0.0,-2.0625,-16.9375,0.988953,0.147217,0.01825,0.0,0.0,0.0,-0.04,-0.35,2.85,9.37,27
5.771564,-0.35,2.85,9.33,0.0625,-0.125,0.0625,-38.375,31.375,-55.875,0.0,-2.0625,-16.9375,0.988953,0.147217,0.01825,0.0,-0.01,0.0,-0.03,-0.35,2.85,9.37,27
5.782474,-0.36,2.85,9.34,-0.0625,-0.125,0.0625,-38.375,31.375,-55.875,0.0,-2.0625,-16.9375,0.988953,0.147217,0.01825,0.0,0.0,0.0,-0.01,-0.35,2.85,9.37,27
5.793384,-0.35,2.84,9.36,0.1875,0.0,0.0,-37.25,32.0625,-55.5,0.0,-2.0625,-16.9375,0.988953,0.147217,0.01825,0.0,0.0,0.0,0.0,-0.35,2.85,9.37,27
5.804295,-0.35,2.84,9.37,0.1875,0.0,0.0625,-37.25,32.0625,-55.5,0.0,-2.0625,-16.9375,0.988953,0.147217,0.01825,0.0,0.0,0.0,-0.04,-0.35,2.85,9.37,27
5.815205,-0.35,2.85,9.33,0.375,0.3125,0.0625,-37.25,32.0625,-55.5,0.0,-2.0625,-16.9375,0.988953,0.147217,0.01825,0.0,-0.01,0.0,-0.01,-0.35,2.85,9.37,27
5.826115,-0.36,2.85,9.35,-0.0625,0.1875,0.0625,-37.25,32.0625,-55.5,0.0,-2.0625,-16.9375,0.988953,0.147217,0.01825,0.0,0.0,-0.02,0.0,-0.35,2.85,9.37,27
5.837026,-0.35,2.83,9.37,0.0,-0.125,-0.0625,-37.25,32.0625,-55.5,0.0,-2.0625,-16.9375,0.988953,0.147217,0.01825,0.0,0.0,0.0,-0.01,-0.35,2.85,9.37,27
5.847936,-0.34,2.85,9.36,0.1875,0.125,0.0,-36.1875,30.5625,-55.0625,0.0,-2.0625,-16.9375,0.988953,0.147217,0.01825,0.0,-0.01,-0.02,-0.02,-0.35,2.85,9.37,27
5.858846,-0.36,2.82,9.34,0.1875,0.1875,-0.0625,-36.1875,30.5625,-55.0625,0.0,-2.0625,-16.9375,0.988953,0.147217,0.01825,0.0,0.0,0.0,-0.02,-0.35,2.85,9.37,27
5.869757,-0.34,2.85,9.35,0.1875,0.0,-0.0625,-36.1875,30.5625,-55.0625,0.0,-2.0625,-16.9375,0.988953,0.147217,0.01825,0.0,0.0,-0.01,-0.04,-0.35,2.85,9.37,27
5.880667,-0.35,2.84,9.33,0.0625,-0.25,0.125,-36.1875,30.5625,-55.0625,0.0,-2.0625,-16.9375,0.988953,0.147217,0.01825,0.0,0.0,0.0,-0.05,-0.35,2.85,9.37,27
5.891577,-0.34,2.85,9.31,0.125,0.25,0.125,-36.1875,30.5625,-55.0625,0.0,-2.0625,-16.9375,0.988953,0.147217,0.01825,0.0,0.0,0.01,-0.01,-0.35,2.85,9.37,27
5.902488,-0.34,2.87,9.35,0.25,0.1875,0.125,-36.875,31.375,-59.5,0.0,-2.0625,-16.9375,0.988953,0.147217,0.01825,0.0,0.0,0.0,0.0,-0.35,2.85,9.37,27
5.913398,-0.34,2.84,9.35,0.0,0.25,-0.125,-36.875,31.375,-59.5,0.0,-2.0625,-16.9375,0.988953,0.147217,0.01825,0.0,0.0,0.0,-0.01,-0.35,2.85,9.37,27
5.924308,-0.35,2.85,9.34,0.1875,0.125,0.125,-36.875,31.375,-59.5,0.0,-2.0625,-16.9375,0.988953,0.147217,0.01825,0.0,0.0,0.02,0.0,-0.35,2.85,9.37,27
5.935219,-0.35,2.87,9.36,-0.0625,0.125,0.0,-36.875,31.375,-59.5,0.0,-2.0625,-16.9375,0.988953,0.147217,0.01825,0.0,0.0,-0.01,-0.01,-0.35,2.85,9.37,27
5.946129,-0.35,2.83,9.36,0.125,-0.125,0.0,-36.875,31.375,-59.5,0.0,-2.0625,-16.9375,0.988953,0.147217,0.01825,0.0,0.0,-0.01,-0.01,-0.35,2.85,9.37,27
5.957039,-0.33,2.84,9.32,0.0625,-0.0625,-0.0625,-34.0,31.375,-61.0625,0.0,-2.0625,-16.9375,0.988953,0.147217,0.01825,0.0,0.0,0.0,-0.03,-0.35,2.85,9.37,27
5.96795,-0.35,2.86,9.34,0.125,-0.1875,0.0625,-34.0,31.375,-61.0625,0.0,-2.0625,-16.9375,0.988953,0.147217,0.01825,0.0,0.0,0.0,-0.02,-0.35,2.85,9.37,27
5.97886,-0.34,2.84,9.35,-0.0625,0.125,0.125,-34.0,31.375,-61.0625,0.0,-2.0625,-16.9375,0.988953,0.147217,0.01825,0.0,0.0,0.0,0.0,-0.35,2.85,9.37,27
5.98977,-0.34,2.86,9.37,0.0625,0.0,0.125,-34.0,31.375,-61.0625,0.0,-2.0625,-16.9375,0.988953,0.147217,0.01825,0.0,0.0,-0.01,-0.03,-0.35,2.85,9.37,27
6.000681,-0.34,2.83,9.34,0.25,0.0625,0.0625,-34.0,29.875,-60.25,0.0,-2.0625,-16.9375,0.988953,0.147217,0.01825,0.0,0.0,-0.01,-0.01,-0.35,2.85,9.37,27
6.011591,-0.34,2.84,9.36,0.0625,0.0625,0.125,-34.0,29.875,-60.25,0.0,-2.0625,-16.9375,0.988953,0.147217,0.01825,0.0,0.0,-0.02,-0.02,-0.35,2.85,9.37,27
6.022501,-0.34,2.83,9.35,0.0625,0.0625,0.0,-34.0,29.875,-60.25,0.0,-2.0625,-16.9375,0.988953,0.147217,0.01825,0.0,0.0,0.0,-0.01,-0.35,2.85,9.37,27
6.033412,-0.35,2.86,9.35,-0.0625,-0.125,0.125,-34.0,29.875,-60.25,0.0,-2.0625,-16.9375,0.988953,0.147217,0.01825,0.0,0.0,0.0,-0.04,-0.35,2.85,9.37,27
6.044322,-0.35,2.85,9.32,0.0625,0.125,0.0,-34.0,29.875,-60.25,0.0,-2.0625,-16.9375,0.988953,0.147217,0.01825,0.0,0.0,-0.01,0.0,-0.35,2.85,9.37,27
6.055232,-0.34,2.84,9.37,-0.0625,-0.0625,0.125,-34.0,30.5625,-59.875,0.0,-2.0625,-16.9375,0.988953,0.147217,0.01825,0.0,-0.01,0.01,-0.01,-0.35,2.85,9.37,27
6.066143,-0.36,2.86,9.35,-0.1875,-0.125,0.0,-34.0,30.5625,-59.875,0.0,-2.0625,-16.9375,0.988953,0.147217,0.01825,0.0,0.0,0.03,0.0,-0.35,2.85,9.37,27
6.077053,-0.34,2.88,9.37,0.125,0.0625,-0.0625,-34.0,30.5625,-59.875,0.0,-2.0625,-16.9375,0.988953,0.147217,0.01825,0.0,0.0,0.01,-0.03,-0.35,2.85,9.37,27
6.087963,-0.34,2.87,9.34,0.0625,-0.3125,0.0,-34.0,30.5625,-59.875,0.0,-2.0625,-16.9375,0.988953,0.147217,0.01825,0.0,0.0,0.0,-0.02,-0.35,2.85,9.37,27
6.098874,-0.35,2.84,9.35,-0.0625,-0.0625,0.0,-34.0,30.5625,-59.875,0.0,-2.0625,-16.9375,0.988953,0.147217,0.01825,0.0,0.0,0.0,-0.01,-0.35,2.85,9.37,27
6.109784,-0.34,2.84,9.35,-0.125,-0.0625,-0.0625,-34.375,30.5625,-60.25,0.0,-2.0625,-16.9375,0.988953,0.147217,0.01825,0.0,0.0,0.0,-0.02,-0.35,2.85,9.37,27
6.120694,-0.35,2.84,9.34,0.1875,0.0625,0.0,-34.375,30.5625,-60.25,0.0,-2.0625,-16.9375,0.988953,0.147217,0.01825,0.0,0.0,-0.01,-0.03,-0.35,2.85,9.37,27
6.131605,-0.36,2.83,9.32,-0.0625,0.0,0.0,-34.375,30.5625,-60.25,0.0,-2.0625,-16.9375,0.988953,0.147217,0.01825,0.0,0.0,0.01,-0.01,-0.35,2.85,9.37,27
6.142515,-0.34,2.86,9.35,0.0,0.1875,0.0,-34.375,30.5625,-60.25,0.0,-2.0625,-16.9375,0.988953,0.147217,0.01825,0.0,0.01,-0.01,-0.03,-0.35,2.85,9.37,27
6.153425,-0.33,2.84,9.33,0.0625,0.25,0.0,-34.375,30.5625,-60.25,0.0,-2.0625,-16.9375,0.988953,0.147217,0.01825,0.0,0.01,-0.01,-0.03,-0.35,2.85,9.37,27
6.164336,-0.36,2.86,9.35,-0.0625,-0.0625,-0.0625,-36.875,32.0625,-55.0625,0.0,-2.0625,-16.9375,0.988953,0.147217,0.01825,0.0,-0.01,-0.01,-0.01,-0.35,2.85,9.37,27
6.175246,-0.34,2.84,9.34,0.0,-0.125,0.0,-36.875,32.0625,-55.0625,0.0,-2.0625,-16.9375,0.988953,0.147217,0.01825,0.0,0.0,0.0,-0.03,-0.35,2.85,9.37,27
6.186156,-0.35,2.84,9.36,0.0,-0.0625,-0.0625,-36.875,32.0625,-55.0625,0.0,-2.0625,-16.9375,0.988953,0.147217,0.01825,0.0,0.0,0.0,0.0,-0.35,2.85,9.37,27
6.197067,-0.34,2.84,9.37,0.0625,-0.0625,0.0,-36.875,32.0625,-55.0625,0.0,-2.0625,-16.9375,0.988953,0.147217,0.01825,0.0,0.0,-0.01,0.0,-0.35,2.85,9.37,27
6.207977,-0.36,2.83,9.35,0.125,-0.25,0.0625,-36.1875,31.375,-54.6875,0.0,-2.0625,-16.9375,0.988953,0.147217,0.01825,0.0,0.0,-0.02,-0.01,-0.35,2.85,9.37,27
6.218887,-0.34,2.83,9.35,-0.0625,0.0625,-0.125,-36.1875,31.375,-54.6875,0.0,-2.0625,-16.9375,0.988953,0.147217,0.01825,0.0,0.0,-0.01,-0.04,-0.35,2.85,9.37,27
6.229798,-0.35,2.83,9.32,0.0,0.125,0.0625,-36.1875,31.375,-54.6875,0.0,-2.0625,-16.9375,0.988953,0.147217,0.01825,0.0,0.0,-0.02,-0.03,-0.35,2.85,9.37,27
6.240708,-0.34,2.82,9.34,0.125,0.25,0.0,-36.1875,31.375,-54.6875,0.0,-2.0625,-16.9375,0.988953,0.147217,0.01825,0.0,0.0,-0.01,-0.02,-0.35,2.85,9.37,27
6.251618,-0.35,2.84,9.34,-0.1875,0.1875,0.0,-37.25,31.375,-56.6875,0.0,-2.0625,-16.9375,0.988953,0.147217,0.01825,0.0,0.0,0.0,-0.01,-0.35,2.85,9.37,27
6.262529,-0.35,2.85,9.35,0.0625,0.25,-0.0625,-37.25,31.375,-56.6875,0.0,-2.0625,-16.9375,0.988953,0.147217,0.01825,0.0,0.01,-0.01,-0.02,-0.35,2.85,9.37,27
6.273439,-0.33,2.84,9.34,0.0625,0.125,0.125,-37.25,31.375,-56.6875,0.0,-2.0625,-16.9375,0.988953,0.147217,0.01825,0.0,0.0,0.0,-0.01,-0.35,2.85,9.37,27
6.284349,-0.35,2.86,9.35,-0.0625,0.1875,0.0625,-37.25,31.375,-56.6875,0.0,-2.0625,-16.9375,0.988953,0.147217,0.01825,0.0,0.01,0.0,-0.01,-0.35,2.85,9.37,27
6.29526,-0.33,2.86,9.36,0.0625,0.125,-0.0625,-37.25,31.375,-56.6875,0.0,-2.0625,-16.9375,0.988953,0.147217,0.01825,0.0,0.0,0.0,-0.02,-0.35,2.85,9.37,27
6.30617,-0.35,2.86,9.35,0.1875,0.125,0.0,-36.5625,32.0625,-55.875,0.0,-2.0625,-16.9375,0.988953,0.147217,0.01825,0.0,0.0,0.0,0.0,-0.35,2.85,9.37,27
6.31708,-0.34,2.84,9.36,0.0625,0.3125,-0.0625,-36.5625,32.0625,-55.875,0.0,-2.0625,-16.9375,0.988953,0.147217,0.01825,0.0,0.0,0.0,-0.04,-0.35,2.85,9.37,27
6.32799,-0.34,2.84,9.35,0.1875,0.0,0.125,-36.5625,32.0625,-55.875,0.0,-2.0625,-16.9375,0.988953,0.147217,0.01825,0.0,0.0,0.0,-0.01,-0.35,2.85,9.37,27
6.338901,-0.34,2.84,9.33,0.0625,-0.0625,0.0625,-36.5625,32.0625,-55.875,0.0,-2.0625,-16.9375,0.988953,0.147217,0.01825,0.0,0.0,0.0,0.0,-0.35,2.85,9.37,27
6.349811,-0.34,2.85,9.36,-0.0625,-0.0625,0.0,-36.5625,32.0625,-55.875,0.0,-2.0625,-16.9375,0.988953,0.147217,0.01825,0.0,0.0,0.0,0.0,-0.35,2.85,9.37,27
6.360721,-0.34,2.88,9.37,0.0,-0.125,0.0625,-36.5625,32.875,-54.6875,0.0,-2.0625,-16.9375,0.988953,0.147217,0.01825,0.0,0.0,-0.01,0.0,-0.35,2.85,9.37,27
6.371632,-0.35,2.84,9.36,0.0625,0.0,0.0625,-36.5625,32.875,-54.6875,0.0,-2.0625,-16.9375,0.988953,0.147217,0.01825,0.0,0.0,0.0,-0.03,-0.35,2.85,9.37,27
6.382542,-0.34,2.85,9.34,0.125,-0.125,0.0,-36.5625,32.875,-54.6875,0.0,-2.0625,-16.9375,0.988953,0.147217,0.01825,0.0,-0.01,-0.01,-0.03,-0.35,2.85,9.37,27
6.393452,-0.36,2.84,9.34,0.0625,0.3125,-0.0625,-36.5625,32.875,-54.6875,0.0,-2.0625,-16.9375,0.988953,0.147217,0.01825,0.0,0.0,0.0,-0.01,-0.35,2.85,9.37,27
6.404363,-0.35,2.85,9.36,-0.1875,0.1875,0.0,-38.375,31.75,-55.875,0.0,-2.0625,-16.9375,0.988953,0.147217,0.01825,0.0,0.01,-0.01,0.0,-0.35,2.85,9.37,27
6.415273,-0.35,2.86,9.32,-0.125,-0.1875,-0.0625,-38.375,31.75,-55.875,0.0,-2.0625,-16.9375,0.988953,0.147217,0.01825,0.0,0.0,0.01,-0.04,-0.35,2.85,9.37,27
6.426183,-0.35,2.86,9.33,-0.1875,-0.25,0.0,-38.375,31.75,-55.875,0.0,-2.0625,-16.9375,0.988953,0.147217,0.01825,0.0,0.0,0.0,-0.01,-0.35,2.85,9.37,27
6.437094,-0.35,2.85,9.36,0.0,0.0625,-0.0625,-38.375,31.75,-55.875,0.0,-2.0625,-16.9375,0.988953,0.147217,0.01825,0.0,0.0,0.02,-0.03,-0.35,2.85,9.37,27
6.448004,-0.34,2.87,9.34,0.0625,0.0,0.125,-38.375,31.75,-55.875,0.0,-2.0625,-16.9375,0.988953,0.147217,0.01825,0.0,0.0,0.02,-0.03,-0.35,2.85,9.37,27
6.458914,-0.35,2.85,9.36,-0.0625,0.0,-0.125,-36.875,32.0625,-55.875,0.0,-2.0625,-16.9375,0.988953,0.147217,0.01825,0.0,0.0,0.0,0.0,-0.35,2.85,9.37,27
6.469825,-0.34,2.84,9.36,0.25,-0.125,0.0625,-36.875,32.0625,-55.875,0.0,-2.0625,-16.9375,0.988953,0.147217,0.01825,0.0,0.01,-0.01,-0.04,-0.35,2.85,9.37,27
6.480735,-0.33,2.83,9.33,0.125,0.5,0.0,-36.875,32.0625,-55.875,0.0,-2.0625,-16.9375,0.988953,0.147217,0.01825,0.0,0.01,0.0,-0.02,-0.35,2.85,9.37,27
6.491645,-0.35,2.83,9.35,0.125,0.125,-0.0625,-36.875,32.0625,-55.875,0.0,-2.0625,-16.9375,0.988953,0.147217,0.01825,0.0,0.0,-0.01,-0.02,-0.35,2.85,9.37,27
6.502556,-0.35,2.86,9.35,-0.0625,0.3125,-0.125,-36.5625,31.375,-56.25,0.0,-2.0625,-16.9375,0.988953,0.147217,0.01825,0.0,0.0,-0.01,-0.03,-0.35,2.85,9.37,27
6.513466,-0.35,2.83,9.33,0.125,0.0,0.0,-36.5625,31.375,-56.25,0.0,-2.0625,-16.9375,0.988953,0.147217,0.01825,0.0,0.0,0.01,-0.02,-0.35,2.85,9.37,27
6.524376,-0.35,2.86,9.34,0.4375,0.0625,-0.0625,-36.5625,31.375,-56.25,0.0,-2.0625,-16.9375,0.988953,0.147217,0.01825,0.0,0.0,0.0,0.0,-0.35,2.85,9.37,27
6.535287,-0.35,2.85,9.37,0.0,0.125,0.0625,-36.5625,31.375,-56.25,0.0,-2.0625,-16.9375,0.988953,0.147217,0.01825,0.0,0.0,-0.01,0.0,-0.35,2.85,9.37,27
6.546197,-0.35,2.84,9.36,0.0625,0.125,0.0625,-36.5625,31.375,-56.25,0.0,-2.0625,-16.9375,0.988953,0.147217,0.01825,0.0,0.0,-0.01,0.0,-0.35,2.85,9.37,27
6.557107,-0.33,2.85,9.39,0.1875,0.1875,0.0,-38.375,31.0,-55.5,0.0,-2.0625,-16.9375,0.988953,0.147217,0.01825,0.0,0.0,-0.01,-0.01,-0.35,2.85,9.37,27
6.568018,-0.35,2.84,9.35,0.0625,-0.125,0.0625,-38.375,31.0,-55.5,0.0,-2.0625,-16.9375,0.988953,0.147217,0.01825,0.0,0.0,0.0,0.0,-0.35,2.85,9.37,27
6.578928,-0.35,2.84,9.33,0.1875,0.125,0.125,-38.375,31.0,-55.5,0.0,-2.0625,-16.9375,0.988953,0.147217,0.01825,0.0,0.0,0.0,-0.04,-0.35,2.85,9.37,27
6.589838,-0.36,2.84,9.34,0.3125,0.0625,0.0625,-38.375,31.0,-55.5,0.0,-2.0625,-16.9375,0.988953,0.147217,0.01825,0.0,-0.01,0.0,-0.02,-0.35,2.85,9.37,27
6.600749,-0.35,2.86,9.33,-0.0625,-0.125,0.1875,-37.6875,31.75,-55.5,0.0,-2.0625,-16.9375,0.988953,0.147217,0.01825,0.0,0.0,0.0,-0.01,-0.35,2.85,9.37,27
6.611659,-0.35,2.85,9.36,0.0,0.0625,0.125,-37.6875,31.75,-55.5,0.0,-2.0625,-16.9375,0.988953,0.147217,0.01825,0.0,0.0,0.0,-0.03,-0.35,2.85,9.37,27
6.622569,-0.35,2.84,9.34,0.25,0.125,0.0625,-37.6875,31.75,-55.5,0.0,-2.0625,-16.9375,0.988953,0.147217,0.01825,0.0,0.0,-0.02,-0.01,-0.35,2.85,9.37,27
6.63348,-0.34,2.82,9.36,0.0625,-0.125,-0.0625,-37.6875,31.75,-55.5,0.0,-2.0625,-16.9375,0.988953,0.147217,0.01825,0.0,0.0,0.0,-0.02,-0.35,2.85,9.37,27
6.64439,-0.35,2.85,9.35,0.0,-0.1875,-0.0625,-37.6875,31.75,-55.5,0.0,-2.0625,-16.9375,0.988953,0.147217,0.01825,0.0,0.0,0.0,-0.02,-0.35,2.85,9.37,27
6.6553,-0.34,2.84,9.36,0.1875,0.0625,0.0,-36.5625,32.0625,-56.75,0.0,-2.0625,-16.9375,0.988953,0.147217,0.01825,0.0,0.0,-0.01,-0.03,-0.35,2.85,9.37,27
6.666211,-0.34,2.84,9.34,0.25,-0.0625,0.0,-36.5625,32.0625,-56.75,0.0,-2.0625,-16.9375,0.988953,0.147217,0.01825,0.0,0.0,0.0,-0.03,-0.35,2.85,9.37,27
6.677121,-0.34,2.85,9.34,0.1875,0.125,0.0,-36.5625,32.0625,-56.75,0.0,-2.0625,-16.9375,0.988953,0.147217,0.01825,0.0,0.0,0.0,-0.03,-0.35,2.85,9.37,27
6.688031,-0.34,2.85,9.33,0.25,0.0625,0.125,-36.5625,32.0625,-56.75,0.0,-2.0625,-16.9375,0.988953,0.147217,0.01825,0.0,-0.01,0.0,-0.01,-0.35,2.85,9.37,27
6.698942,-0.36,2.85,9.35,0.125,0.1875,0.0,-37.6875,31.375,-55.0625,0.0,-2.0625,-16.9375,0.988953,0.147217,0.01825,0.0,0.0,0.0,0.0,-0.35,2.85,9.37,27
6.709852,-0.35,2.84,9.37,0.0625,-0.25,0.0625,-37.6875,31.375,-55.0625,0.0,-2.0625,-16.9375,0.988953,0.147217,0.01825,0.0,-0.01,0.0,0.0,-0.35,2.85,9.37,27
6.720762,-0.36,2.85,9.36,0.0,-0.0625,0.0625,-37.6875,31.375,-55.0625,0.0,-2.0625,-16.9375,0.988953,0.147217,0.01825,0.0,0.0,0.01,-0.03,-0.35,2.85,9.37,27
6.731673,-0.34,2.87,9.34,-0.0625,-0.0625,0.0,-37.6875,31.375,-55.0625,0.0,-2.0625,-16.9375,0.988953,0.147217,0.01825,0.0,0.0,0.0,-0.01,-0.35,2.85,9.37,27
6.742583,-0.34,2.85,9.36,-0.125,0.0,0.0,-37.6875,31.375,-55.0625,0.0,-2.0625,-16.9375,0.988953,0.147217,0.01825,0.0,0.0,0.01,0.01,-0.35,2.85,9.37,27
6.753493,-0.34,2.86,9.39,-0.0625,0.0,0.125,-35.875,31.0,-55.875,0.0,-2.0625,-16.9375,0.988953,0.147217,0.01825,0.0,0.0,0.0,-0.02,-0.35,2.85,9.37,27
6.764404,-0.34,2.85,9.35,0.0625,0.1875,0.0625,-35.875,31.0,-55.875,0.0,-2.0625,-16.9375,0.988953,0.147217,0.01825,0.0,-0.01,0.0,0.0,-0.35,2.85,9.37,27
6.775314,-0.36,2.86,9.36,0.0,0.0,-0.125,-35.875,31.0,-55.875,0.0,-2.0625,-16.9375,0.988953,0.147217,0.01825,0.0,0.0,-0.01,-0.03,-0.35,2.85,9.37,27
6.786224,-0.34,2.84,9.34,0.0,-0.125,0.0625,-35.875,31.0,-55.875,0.0,-2.0625,-16.9375,0.988953,0.147217,0.01825,0.0,0.0,0.01,-0.01,-0.35,2.85,9.37,27
6.797135,-0.35,2.87,9.36,-0.1875,0.0,-0.0625,-35.875,31.0,-55.875,0.0,-2.0625,-16.9375,0.988953,0.147217,0.01825,0.0,-0.01,-0.01,-0.02,-0.35,2.85,9.37,27
6.808045,-0.35,2.85,9.38,0.0,-0.125,-0.125,-36.5625,32.0625,-55.875,0.0,-2.0625,-16.9375,0.988953,0.147217,0.01825,0.0,0.0,0.0,0.0,-0.35,2.85,9.37,27
6.818955,-0.33,2.86,9.34,-0.0625,0.1875,0.0625,-36.5625,32.0625,-55.875,0.0,-2.0625,-16.9375,0.988953,0.147217,0.01825,0.0,0.01,0.0,-0.02,-0.35,2.85,9.37,27
6.829866,-0.35,2.86,9.33,-0.1875,-0.0625,-0.25,-36.5625,32.0625,-55.875,0.0,-2.0625,-16.9375,0.988953,0.147217,0.01825,0.0,0.0,-0.01,0.0,-0.35,2.85,9.37,27
6.840776,-0.34,2.84,9.36,-0.0625,0.0625,0.0,-36.5625,32.0625,-55.875,0.0,-2.0625,-16.9375,0.988953,0.147217,0.01825,0.0,0.0,-0.01,-0.01,-0.35,2.85,9.37,27
6.851686,-0.34,2.83,9.36,-0.3125,0.0625,-0.125,-36.5625,32.0625,-55.875,0.0,-2.0625,-16.9375,0.988953,0.147217,0.01825,0.0,0.0,-0.01,-0.01,-0.35,2.85,9.37,27
6.862597,-0.35,2.86,9.38,-0.25,0.0,-0.0625,-33.5625,30.25,-60.375,0.0,-2.0625,-16.9375,0.988953,0.147217,0.01825,0.0,0.0,0.01,-0.04,-0.35,2.85,9.37,27
6.873507,-0.35,2.86,9.32,0.0625,0.25,0.0,-33.5625,30.25,-60.375,0.0,-2.0625,-16.9375,0.988953,0.147217,0.01825,0.0,0.0,0.0,-0.04,-0.35,2.85,9.37,27
6.884417,-0.35,2.85,9.32,-0.1875,0.125,0.0,-33.5625,30.25,-60.375,0.0,-2.0625,-16.9375,0.988953,0.147217,0.01825,0.0,0.0,0.01,-0.03,-0.35,2.85,9.37,27
6.895328,-0.35,2.86,9.34,-0.1875,0.125,-0.1875,-33.5625,30.25,-60.375,0.0,-2.0625,-16.9375,0.988953,0.147217,0.01825,0.0,-0.01,0.0,-0.01,-0.35,2.85,9.37,27
6.906238,-0.36,2.84,9.36,-0.0625,0.375,-0.1875,-36.1875,31.375,-55.5,0.0,-2.0625,-16.9375,0.988953,0.147217,0.01825,0.0,-0.01,0.01,-0.03,-0.35,2.85,9.37,27
6.917148,-0.37,2.86,9.33,0.0625,0.125,-0.0625,-36.1875,31.375,-55.5,0.0,-2.0625,-16.9375,0.988953,0.147217,0.01825,0.0,-0.01,-0.01,-0.02,-0.35,2.85,9.37,27
6.928059,-0.36,2.84,9.34,-0.25,0.25,0.0,-36.1875,31.375,-55.5,0.0,-2.0625,-16.9375,0.988953,0.147217,0.01825,0.0,0.0,0.01,-0.02,-0.35,2.85,9.37,27
6.938969,-0.34,2.86,9.34,-0.0625,0.125,-0.1875,-36.1875,31.375,-55.5,0.0,-2.0625,-16.9375,0.988953,0.147217,0.01825,0.0,0.0,0.02,-0.06,-0.35,2.85,9.37,27
6.949879,-0.34,2.87,9.31,-0.1875,0.125,0.0625,-36.1875,31.375,-55.5,0.0,-2.0625,-16.9375,0.988953,0.147217,0.01825,0.0,0.0,0.0,-0.01,-0.35,2.85,9.37,27
6.96079,-0.35,2.84,9.36,-0.1875,0.375,0.0,-36.5625,31.375,-55.5,0.0,-2.0625,-16.9375,0.988953,0.147217,0.01825,0.0,0.0,-0.01,0.0,-0.35,2.85,9.37,27
6.9717,-0.35,2.84,9.37,-0.0625,0.25,0.0625,-36.5625,31.375,-55.5,0.0,-2.0625,-16.9375,0.988953,0.147217,0.01825,0.0,0.0,0.0,-0.03,-0.35,2.85,9.37,27
6.98261,-0.35,2.85,9.33,-0.125,0.375,0.0,-36.5625,31.375,-55.5,0.0,-2.0625,-16.9375,0.988953,0.147217,0.01825,0.0,0.0,-0.01,-0.03,-0.35,2.85,9.37,27
6.993521,-0.34,2.83,9.35,0.0625,0.1875,-0.125,-36.5625,31.375,-55.5,0.0,-2.0625,-16.9375,0.988953,0.147217,0.01825,0.0,0.0,-0.02,-0.01,-0.35,2.85,9.37,27
7.004431,-0.33,2.85,9.38,-0.0625,0.0625,-0.0625,-36.5625,31.375,-55.5,0.0,-2.0625,-16.9375,0.988953,0.147217,0.01825,0.0,0.01,0.0,0.01,-0.35,2.85,9.37,27
7.015341,-0.34,2.85,9.34,-0.375,-0.25,-0.0625,-36.875,32.0625,-56.6875,0.0,-2.0625,-16.9375,0.988953,0.147217,0.01825,0.0,0.0,0.0,-0.02,-0.35,2.85,9.37,27
7.026252,-0.34,2.85,9.35,-0.1875,-0.0625,-0.0625,-36.875,32.0625,-56.6875,0.0,-2.0625,-16.9375,0.988953,0.147217,0.01825,0.0,0.0,0.01,-0.03,-0.35,2.85,9.37,27
7.037162,-0.34,2.87,9.34,0.0625,0.0,0.0625,-36.875,32.0625,-56.6875,0.0,-2.0625,-16.9375,0.988953,0.147217,0.01825,0.0,0.0,-0.01,0.0,-0.35,2.85,9.37,27
7.048072,-0.34,2.84,9.36,0.0,0.0625,-0.0625,-36.875,32.0625,-56.6875,0.0,-2.0625,-16.9375,0.988953,0.147217,0.01825,0.0,0.0,0.0,-0.02,-0.35,2.85,9.37,27
7.058982,-0.34,2.85,9.35,-0.0625,0.0,0.0,-36.875,32.0625,-56.6875,0.0,-2.0625,-16.9375,0.988953,0.147217,0.01825,0.0,0.0,0.0,-0.02,-0.35,2.85,9.37,27
7.069893,-0.34,2.86,9.34,-0.1875,0.0625,-0.0625,-37.6875,32.5,-56.75,0.0,-2.0625,-16.9375,0.988953,0.147217,0.01825,0.0,0.0,0.0,-0.02,-0.35,2.85,9.37,27
7.080803,-0.35,2.84,9.35,0.0,0.125,-0.1875,-37.6875,32.5,-56.75,0.0,-2.0625,-16.9375,0.988953,0.147217,0.01825,0.0,0.0,0.0,-0.04,-0.35,2.85,9.37,27
7.091713,-0.35,2.85,9.33,-0.125,0.25,-0.125,-37.6875,32.5,-56.75,0.0,-2.0625,-16.9375,0.988953,0.147217,0.01825,0.0,0.0,0.0,-0.03,-0.35,2.85,9.37,27
7.102624,-0.34,2.84,9.33,-0.0625,0.125,-0.125,-37.6875,32.5,-56.75,0.0,-2.0625,-16.9375,0.988953,0.147217,0.01825,0.0,0.0,-0.01,-0.01,-0.35,2.85,9.37,27
7.113534,-0.34,2.83,9.35,0.125,0.1875,-0.125,-34.0,30.25,-60.75,0.0,-2.0625,-16.9375,0.988953,0.147217,0.01825,0.0,0.0,0.0,-0.02,-0.35,2.85,9.37,27
7.124444,-0.34,2.86,9.35,-0.125,0.1875,0.0,-34.0,30.25,-60.75,0.0,-2.0625,-16.9375,0.988953,0.147217,0.01825,0.0,0.0,0.0,-0.02,-0.35,2.85,9.37,27
7.135355,-0.34,2.84,9.34,0.0,0.25,-0.0625,-34.0,30.25,-60.75,0.0,-2.0625,-16.9375,0.988953,0.147217,0.01825,0.0,0.0,0.0,-0.02,-0.35,2.85,9.37,27
7.146265,-0.34,2.85,9.34,0.0625,0.25,-0.0625,-34.0,30.25,-60.75,0.0,-2.0625,-16.9375,0.988953,0.147217,0.01825,0.0,0.0,0.0,-0.01,-0.35,2.85,9.37,27
7.157175,-0.35,2.85,9.35,0.0625,0.0625,-0.0625,-34.0,30.25,-60.75,0.0,-2.0625,-16.9375,0.988953,0.147217,0.01825,0.0,0.0,0.0,-0.01,-0.35,2.85,9.37,27
7.168086,-0.33,2.86,9.35,-0.25,0.125,-0.1875,-34.0,30.25,-60.75,0.0,-2.0625,-16.9375,0.988953,0.147217,0.01825,0.0,0.0,0.01,-0.01,-0.35,2.85,9.37,27
7.178996,-0.35,2.86,9.35,-0.0625,0.125,-0.1875,-34.0,30.25,-60.75,0.0,-2.0625,-16.9375,0.988953,0.147217,0.01825,0.0,0.0,-0.01,-0.06,-0.35,2.85,9.37,27
7.189906,-0.34,2.84,9.31,0.0,0.1875,0.0625,-34.0,30.25,-60.75,0.0,-2.0625,-16.9375,0.988953,0.147217,0.01825,0.0,0.01,0.0,-0.03,-0.35,2.85,9.37,27
7.200817,-0.33,2.85,9.33,-0.125,-0.1875,-0.0625,-34.0,30.25,-60.75,0.0,-2.0625,-16.9375,0.988953,0.147217,0.01825,0.0,-0.01,-0.01,0.0,-0.35,2.85,9.37,27
7.211727,-0.36,2.83,9.36,0.0625,0.0625,0.0,-34.75,30.25,-59.5625,0.0,-2.0625,-16.9375,0.988953,0.147217,0.01825,0.0,0.0,0.0,-0.03,-0.35,2.85,9.37,27
7.222637,-0.35,2.84,9.32,0.125,0.0,0.0,-34.75,30.25,-59.5625,0.0,-2.0625,-16.9375,0.988953,0.147217,0.01825,0.0,0.0,-0.01,-0.04,-0.35,2.85,9.37,27
7.233548,-0.34,2.84,9.34,0.0,0.1875,-0.125,-34.75,30.25,-59.5625,0.0,-2.0625,-16.9375,0.988953,0.147217,0.01825,0.0,0.01,0.0,-0.05,-0.35,2.85,9.37,27
7.244458,-0.33,2.86,9.32,-0.0625,0.0,0.0,-34.75,30.25,-59.5625,0.0,-2.0625,-16.9375,0.988953,0.147217,0.01825,0.0,0.0,0.0,-0.04,-0.35,2.85,9.37,27
7.255368,-0.35,2.84,9.33,0.125,0.125,0.0625,-34.75,30.25,-59.5625,0.0,-2.0625,-16.9375,0.988953,0.147217,0.01825,0.0,0.0,0.0,-0.04,-0.35,2.85,9.37,27
7.266279,-0.35,2.84,9.36,0.125,-0.0625,-0.0625,-35.5,30.25,-60.375,0.0,-2.0625,-16.9375,0.988953,0.147217,0.01825,0.0,0.0,0.0,-0.02,-0.35,2.85,9.37,27
7.277189,-0.34,2.86,9.34,-0.0625,-0.0625,0.0625,-35.5,30.25,-60.375,0.0,-2.0625,-16.9375,0.988953,0.147217,0.01825,0.0,0.0,0.02,-0.03,-0.35,2.85,9.37,27
7.288099,-0.34,2.88,9.34,-0.25,0.125,-0.125,-35.5,30.25,-60.375,0.0,-2.0625,-16.9375,0.988953,0.147217,0.01825,0.0,0.0,0.0,-0.01,-0.35,2.85,9.37,27
7.29901,-0.35,2.86,9.36,-0.3125,0.125,-0.125,-35.5,30.25,-60.375,0.0,-2.0625,-16.9375,0.988953,0.147217,0.01825,0.0,0.0,0.0,-0.03,-0.35,2.85,9.37,27
7.30992,-0.34,2.85,9.33,-0.1875,0.1875,-0.125,-34.375,30.5625,-59.0625,0.0,-2.0625,-16.9375,0.988953,0.147217,0.01825,0.0,0.0,0.01,-0.01,-0.35,2.85,9.37,27
7.32083,-0.35,2.85,9.37,0.125,0.0,0.0,-34.375,30.5625,-59.0625,0.0,-2.0625,-16.9375,0.988953,0.147217,0.01825,0.0,0.0,0.0,0.0,-0.35,2.85,9.37,27
7.331741,-0.34,2.84,9.32,-0.125,-0.0625,0.0625,-34.375,30.5625,-59.0625,0.0,-2.0625,-16.9375,0.988953,0.147217,0.01825,0.0,-0.01,-0.01,0.0,-0.35,2.85,9.37,27
7.342651,-0.36,2.84,9.38,0.125,0.0,-0.0625,-34.375,30.5625,-59.0625,0.0,-2.0625,-16.9375,0.988953,0.147217,0.01825,0.0,0.0,0.0,-0.01,-0.35,2.85,9.37,27
7.353561,-0.34,2.86,9.36,0.25,0.0625,0.0625,-34.375,30.5625,-59.0625,0.0,-2.0625,-16.9375,0.988953,0.147217,0.01825,0.0,0.0,0.0,-0.01,-0.35,2.85,9.37,27
7.364472,-0.34,2.85,9.34,-0.125,0.1875,-0.0625,-37.25,31.75,-54.75,0.0,-2.0625,-16.9375,0.988953,0.147217,0.01825,0.0,0.0,0.0,-0.04,-0.35,2.85,9.37,27
7.375382,-0.35,2.85,9.33,-0.125,0.25,0.0,-37.25,31.75,-54.75,0.0,-2.0625,-16.9375,0.988953,0.147217,0.01825,0.0,0.01,0.0,-0.02,-0.35,2.85,9.37,27
7.386292,-0.33,2.83,9.34,0.0,0.0625,0.0,-37.25,31.75,-54.75,0.0,-2.0625,-16.9375,0.988953,0.147217,0.01825,0.0,0.01,-0.01,-0.03,-0.35,2.85,9.37,27
7.397203,-0.34,2.87,9.36,-0.125,0.125,-0.0625,-37.25,31.75,-54.75,0.0,-2.0625,-16.9375,0.988953,0.147217,0.01825,0.0,0.0,0.01,-0.01,-0.35,2.85,9.37,27
7.408113,-0.35,2.83,9.35,0.0,0.0,0.0,-35.5,31.375,-56.75,0.0,-2.0625,-16.9375,0.988953,0.147217,0.01825,0.0,0.0,-0.01,-0.02,-0.35,2.85,9.37,27
7.419023,-0.35,2.84,9.34,0.0625,-0.0625,0.0,-35.5,31.375,-56.75,0.0,-2.0625,-16.9375,0.988953,0.147217,0.01825,0.0,0.0,0.0,-0.04,-0.35,2.85,9.37,27
7.429934,-0.34,2.85,9.32,-0.3125,0.3125,-0.125,-35.5,31.375,-56.75,0.0,-2.0625,-16.9375,0.988953,0.147217,0.01825,0.0,0.0,0.0,0.0,-0.35,2.85,9.37,27
7.440844,-0.34,2.85,9.37,-0.1875,0.125,0.0,-35.5,31.375,-56.75,0.0,-2.0625,-16.9375,0.988953,0.147217,0.01825,0.0,0.0,0.0,-0.02,-0.35,2.85,9.37,27
7.451754,-0.35,2.85,9.34,0.0625,-0.125,-0.0625,-35.5,31.375,-56.75,0.0,-2.0625,-16.9375,0.988953,0.147217,0.01825,0.0,0.0,0.0,-0.02,-0.35,2.85,9.37,27
7.462665,-0.34,2.85,9.36,0.125,0.0625,0.0,-35.0625,31.0,-59.875,0.0,-2.0625,-16.9375,0.988953,0.147217,0.01825,0.0,0.0,0.01,-0.02,-0.35,2.85,9.37,27
7.473575,-0.35,2.86,9.35,-0.0625,0.1875,-0.0625,-35.0625,31.0,-59.875,0.0,-2.0625,-16.9375,0.988953,0.147217,0.01825,0.0,0.0,0.0,-0.03,-0.35,2.85,9.37,27
7.484485,-0.35,2.86,9.34,-0.25,-0.125,0.0,-35.0625,31.0,-59.875,0.0,-2.0625,-16.9375,0.988953,0.147217,0.01825,0.0,0.0,0.0,-0.04,-0.35,2.85,9.37,27
7.495396,-0.35,2.85,9.33,-0.25,0.125,0.0,-35.0625,31.0,-59.875,0.0,-2.0625,-16.9375,0.988953,0.147217,0.01825,0.0,0.0,0.0,-0.01,-0.35,2.85,9.37,27
7.506306,-0.35,2.86,9.35,-0.1875,0.0625,-0.0625,-37.6875,32.0625,-56.75,0.0,-2.0625,-16.9375,0.988953,0.147217,0.01825,0.0,0.0,0.0,-0.02,-0.35,2.85,9.37,27
7.517216,-0.35,2.85,9.35,0.1875,0.375,0.0,-37.6875,32.0625,-56.75,0.0,-2.0625,-16.9375,0.988953,0.147217,0.01825,0.0,0.0,0.0,-0.02,-0.35,2.85,9.37,27
7.528127,-0.36,2.85,9.35,0.1875,0.25,-0.0625,-37.6875,32.0625,-56.75,0.0,-2.0625,-16.9375,0.988953,0.147217,0.01825,0.0,0.0,-0.02,-0.02,-0.35,2.85,9.37,27
7.539037,-0.34,2.82,9.34,-0.125,0.125,-0.0625,-37.6875,32.0625,-56.75,0.0,-2.0625,-16.9375,0.988953,0.147217,0.01825,0.0,0.0,0.0,-0.01,-0.35,2.85,9.37,27
7.549947,-0.34,2.85,9.36,-0.1875,0.1875,-0.0625,-37.6875,32.0625,-56.75,0.0,-2.0625,-16.9375,0.988953,0.147217,0.01825,0.0,0.0,0.0,-0.01,-0.35,2.85,9.37,27
7.560858,-0.35,2.85,9.37,-0.125,0.25,0.0,-36.1875,32.0625,-55.0625,0.0,-2.0625,-16.9375,0.988953,0.147217,0.01825,0.0,0.0,0.0,-0.03,-0.35,2.85,9.37,27
7.571768,-0.35,2.86,9.34,-0.125,-0.0625,-0.0625,-36.1875,32.0625,-55.0625,0.0,-2.0625,-16.9375,0.988953,0.147217,0.01825,0.0,-0.01,0.0,-0.02,-0.35,2.85,9.37,27
7.582678,-0.36,2.84,9.34,-0.25,0.125,-0.0625,-36.1875,32.0625,-55.0625,0.0,-2.0625,-16.9375,0.988953,0.147217,0.01825,0.0,0.0,0.0,-0.01,-0.35,2.85,9.37,27
7.593589,-0.34,2.86,9.35,-0.25,0.25,-0.0625,-36.1875,32.0625,-55.0625,0.0,-2.0625,-16.9375,0.988953,0.147217,0.01825,0.0,-0.01,0.0,-0.03,-0.35,2.85,9.37,27
7.604499,-0.36,2.84,9.33,-0.1875,0.125,0.0,-36.5625,31.375,-55.875,0.0,-2.0625,-16.9375,0.988953,0.147217,0.01825,0.0,0.0,-0.01,-0.02,-0.35,2.85,9.37,27
7.615409,-0.35,2.87,9.38,-0.1875,0.125,0.0,-36.5625,31.375,-55.875,0.0,-2.0625,-16.9375,0.988953,0.147217,0.01825,0.0,0.0,0.02,0.0,-0.35,2.85,9.37,27
7.62632,-0.34,2.85,9.34,-0.0625,0.3125,-0.1875,-36.5625,31.375,-55.875,0.0,-2.0625,-16.9375,0.988953,0.147217,0.01825,0.0,0.0,0.0,-0.01,-0.35,2.85,9.37,27
7.63723,-0.34,2.85,9.36,0.0,0.0625,-0.125,-36.5625,31.375,-55.875,0.0,-2.0625,-16.9375,0.988953,0.147217,0.01825,0.0,0.01,0.0,-0.03,-0.35,2.85,9.37,27
7.64814,-0.33,2.84,9.34,0.0625,0.0,-0.0625,-36.5625,31.375,-55.875,0.0,-2.0625,-16.9375,0.988953,0.147217,0.01825,0.0,0.01,0.0,-0.03,-0.35,2.85,9.37,27
7.659051,-0.34,2.86,9.36,-0.0625,0.125,0.0,-36.5625,31.0,-56.25,0.0,-2.0625,-16.9375,0.988953,0.147217,0.01825,0.0,0.0,0.0,-0.02,-0.35,2.85,9.37,27
7.669961,-0.35,2.85,9.35,0.1875,0.1875,0.0625,-36.5625,31.0,-56.25,0.0,-2.0625,-16.9375,0.988953,0.147217,0.01825,0.0,0.0,-0.01,-0.04,-0.35,2.85,9.37,27
7.680871,-0.34,2.83,9.33,-0.1875,-0.1875,-0.125,-36.5625,31.0,-56.25,0.0,-2.0625,-16.9375,0.988953,0.147217,0.01825,0.0,0.0,0.0,-0.01,-0.35,2.85,9.37,27
7.691782,-0.34,2.85,9.35,0.0625,0.25,-0.125,-36.5625,31.0,-56.25,0.0,-2.0625,-16.9375,0.988953,0.147217,0.01825,0.0,-0.01,0.0,-0.01,-0.35,2.85,9.37,27
7.702692,-0.36,2.85,9.35,0.0625,0.0625,0.0625,-38.75,31.75,-53.875,0.0,-2.0625,-16.9375,0.988953,0.147217,0.01825,0.0,0.01,0.0,-0.02,-0.35,2.85,9.37,27
7.713602,-0.33,2.85,9.35,0.0,0.3125,-0.0625,-38.75,31.75,-53.875,0.0,-2.0625,-16.9375,0.988953,0.147217,0.01825,0.0,0.0,-0.01,-0.01,-0.35,2.85,9.37,27
7.724513,-0.35,2.83,9.36,-0.3125,0.1875,0.0625,-38.75,31.75,-53.875,0.0,-2.0625,-16.9375,0.988953,0.147217,0.01825,0.0,0.0,0.01,-0.02,-0.35,2.85,9.37,27
7.735423,-0.34,2.87,9.34,-0.0625,0.0,0.0,-38.75,31.75,-53.875,0.0,-2.0625,-16.9375,0.988953,0.147217,0.01825,0.0,0.0,-0.01,-0.02,-0.35,2.85,9.37,27
7.746333,-0.35,2.83,9.34,0.0,0.3125,-0.1875,-38.75,31.75,-53.875,0.0,-2.0625,-16.9375,0.988953,0.147217,0.01825,0.0,0.0,0.0,-0.01,-0.35,2.85,9.37,27
7.757244,-0.34,2.84,9.36,-0.125,0.0625,-0.125,-35.5,31.375,-55.0625,0.0,-2.0625,-16.9375,0.988953,0.147217,0.01825,0.0,-0.01,0.02,-0.01,-0.35,2.85,9.37,27
7.768154,-0.36,2.87,9.35,-0.1875,0.0625,0.0625,-35.5,31.375,-55.0625,0.0,-2.0625,-16.9375,0.988953,0.147217,0.01825,0.0,-0.02,0.0,-0.02,-0.35,2.85,9.37,27
7.779064,-0.37,2.85,9.34,-0.0625,-0.125,-0.125,-35.5,31.375,-55.0625,0.0,-2.0625,-16.9375,0.988953,0.147217,0.01825,0.0,0.0,0.0,-0.01,-0.35,2.85,9.37,27
7.789975,-0.34,2.84,9.36,-0.0625,0.1875,-0.0625,-35.5,31.375,-55.0625,0.0,-2.0625,-16.9375,0.988953,0.147217,0.01825,0.0,0.0,0.0,-0.01,-0.35,2.85,9.37,27
7.800885,-0.34,2.84,9.35,-0.0625,0.1875,0.0,-35.5,31.375,-55.0625,0.0,-2.0625,-16.9375,0.988953,0.147217,0.01825,0.0,0.0,0.0,-0.02,-0.35,2.85,9.37,27
7.811795,-0.35,2.86,9.35,-0.1875,0.0625,-0.125,-37.6875,32.5,-56.25,0.0,-2.0625,-16.9375,0.988953,0.147217,0.01825,0.0,0.0,0.02,-0.05,-0.35,2.85,9.37,27
7.822705,-0.35,2.87,9.32,-0.25,-0.1875,-0.0625,-37.6875,32.5,-56.25,0.0,-2.0625,-16.9375,0.988953,0.147217,0.01825,0.0,-0.01,0.0,-0.05,-0.35,2.85,9.37,27
7.833616,-0.36,2.85,9.32,-0.1875,0.25,-0.0625,-37.6875,32.5,-56.25,0.0,-2.0625,-16.9375,0.988953,0.147217,0.01825,0.0,0.0,0.0,0.0,-0.35,2.85,9.37,27
7.844526,-0.34,2.85,9.36,-0.0625,0.25,-0.1875,-37.6875,32.5,-56.25,0.0,-2.0625,-16.9375,0.988953,0.147217,0.01825,0.0,-0.01,0.0,-0.02,-0.35,2.85,9.37,27
7.855436,-0.36,2.84,9.35,-0.1875,0.0,-0.0625,-37.6875,32.5,-56.25,0.0,-2.0625,-16.9375,0.988953,0.147217,0.01825,0.0,-0.01,0.0,-0.02,-0.35,2.85,9.37,27
7.866347,-0.34,2.83,9.37,0.0,-0.125,-0.0625,-36.875,31.375,-55.875,0.0,-2.0625,-16.9375,0.988953,0.147217,0.01825,0.0,0.0,0.0,-0.03,-0.35,2.85,9.37,27
7.877257,-0.35,2.85,9.34,0.125,0.1875,0.0,-36.875,31.375,-55.875,0.0,-2.0625,-16.9375,0.988953,0.147217,0.01825,0.0,0.0,0.0,-0.02,-0.35,2.85,9.37,27
7.888167,-0.35,2.86,9.34,-0.125,0.125,-0.0625,-36.875,31.375,-55.875,0.0,-2.0625,-16.9375,0.988953,0.147217,0.01825,0.0,-0.01,0.0,-0.03,-0.35,2.85,9.37,27
7.899078,-0.36,2.84,9.34,-0.0625,0.0,0.0,-36.875,31.375,-55.875,0.0,-2.0625,-16.9375,0.988953,0.147217,0.01825,0.0,0.0,0.0,-0.01,-0.35,2.85,9.37,27
7.909988,-0.34,2.85,9.35,-0.0625,0.1875,-0.0625,-37.6875,31.75,-55.5625,0.0,-2.0625,-16.9375,0.988953,0.147217,0.01825,0.0,0.0,0.0,-0.02,-0.35,2.85,9.37,27
7.920898,-0.35,2.83,9.35,-0.1875,-0.0625,0.0,-37.6875,31.75,-55.5625,0.0,-2.0625,-16.9375,0.988953,0.147217,0.01825,0.0,0.0,-0.01,-0.02,-0.35,2.85,9.37,27
7.931809,-0.34,2.85,9.33,-0.1875,-0.125,0.0,-37.6875,31.75,-55.5625,0.0,-2.0625,-16.9375,0.988953,0.147217,0.01825,0.0,0.0,0.0,-0.03,-0.35,2.85,9.37,27
7.942719,-0.35,2.85,9.34,-0.1875,0.125,-0.0625,-37.6875,31.75,-55.5625,0.0,-2.0625,-16.9375,0.988953,0.147217,0.01825,0.0,0.0,0.01,-0.02,-0.35,2.85,9.37,27
7.953629,-0.34,2.86,9.34,0.0,0.25,-0.125,-37.6875,31.75,-55.5625,0.0,-2.0625,-16.9375,0.988953,0.147217,0.01825,0.0,0.0,0.01,-0.02,-0.35,2.85,9.37,27
7.96454,-0.35,2.85,9.32,-0.1875,-0.125,0.0625,-35.875,31.75,-55.5625,0.0,-2.0625,-16.9375,0.988953,0.147217,0.01825,0.0,0.0,0.0,-0.03,-0.35,2.85,9.37,27
7.97545,-0.35,2.85,9.34,-0.125,0.0625,-0.125,-35.875,31.75,-55.5625,0.0,-2.0625,-16.9375,0.988953,0.147217,0.01825,0.0,0.0,0.0,-0.03,-0.35,2.85,9.37,27
7.98636,-0.35,2.85,9.34,-0.0625,-0.0625,-0.125,-35.875,31.75,-55.5625,0.0,-2.0625,-16.9375,0.988953,0.147217,0.01825,0.0,0.0,0.0,-0.01,-0.35,2.85,9.37,27
7.997271,-0.34,2.86,9.36,-0.0625,-0.25,0.0,-35.875,31.75,-55.5625,0.0,-2.0625,-16.9375,0.988953,0.147217,0.01825,0.0,0.0,0.0,-0.01,-0.35,2.85,9.37,27
8.008181,-0.34,2.85,9.35,0.0,0.0625,-0.125,-36.25,31.75,-55.875,0.0,-2.0625,-16.9375,0.988953,0.147217,0.01825,0.0,0.0,0.01,-0.03,-0.35,2.85,9.37,27
8.019091,-0.34,2.86,9.34,-0.0625,0.125,-0.125,-36.25,31.75,-55.875,0.0,-2.0625,-16.9375,0.988953,0.147217,0.01825,0.0,0.0,0.02,-0.01,-0.35,2.85,9.37,27
8.030002,-0.35,2.86,9.34,-0.0625,0.25,-0.0625,-36.25,31.75,-55.875,0.0,-2.0625,-16.9375,0.988953,0.147217,0.01825,0.0,0.0,0.01,-0.03,-0.35,2.85,9.37,27
8.040912,-0.34,2.85,9.36,-0.125,0.25,-0.1875,-36.25,31.75,-55.875,0.0,-2.0625,-16.9375,0.988953,0.147217,0.01825,0.0,0.01,0.0,-0.01,-0.35,2.85,9.37,27
8.051822,-0.33,2.84,9.35,-0.125,0.375,0.1875,-36.25,31.75,-55.875,0.0,-2.0625,-16.9375,0.988953,0.147217,0.01825,0.0,0.01,0.0,-0.01,-0.35,2.85,9.37,27
8.062733,-0.34,2.85,9.37,0.0,0.0625,-0.125,-33.5625,30.5625,-60.75,0.0,-2.0625,-16.9375,0.988953,0.147217,0.01825,0.0,-0.01,0.0,0.0,-0.35,2.85,9.37,27
8.073643,-0.37,2.84,9.36,-0.125,0.25,-0.125,-33.5625,30.5625,-60.75,0.0,-2.0625,-16.9375,0.988953,0.147217,0.01825,0.0,-0.01,0.0,-0.03,-0.35,2.85,9.37,27
8.084553,-0.36,2.85,9.33,-0.125,0.0,-0.0625,-33.5625,30.5625,-60.75,0.0,-2.0625,-16.9375,0.988953,0.147217,0.01825,0.0,0.0,-0.02,-0.01,-0.35,2.85,9.37,27
8.095464,-0.34,2.82,9.35,0.125,0.0625,0.0,-33.5625,30.5625,-60.75,0.0,-2.0625,-16.9375,0.988953,0.147217,0.01825,0.0,0.0,0.0,-0.04,-0.35,2.85,9.37,27
8.106374,-0.35,2.85,9.32,0.0,-0.125,-0.1875,-38.0625,31.375,-55.875,0.0,-2.0625,-16.9375,0.988953,0.147217,0.01825,0.0,0.0,0.0,-0.01,-0.35,2.85,9.37,27
8.117284,-0.37,2.84,9.34,-0.125,0.0625,0.0,-38.0625,31.375,-55.875,0.0,-2.0625,-16.9375,0.988953,0.147217,0.01825,0.0,-0.01,-0.01,-0.03,-0.35,2.85,9.37,27
8.128195,-0.34,2.85,9.33,-0.0625,0.0625,-0.25,-38.0625,31.375,-55.875,0.0,-2.0625,-16.9375,0.988953,0.147217,0.01825,0.0,0.0,0.0,-0.03,-0.35,2.85,9.37,27
8.139105,-0.34,2.85,9.34,-0.125,0.0625,0.125,-38.0625,31.375,-55.875,0.0,-2.0625,-16.9375,0.988953,0.147217,0.01825,0.0,0.0,0.01,0.0,-0.35,2.85,9.37,27
8.150015,-0.35,2.86,9.36,-0.0625,0.5,-0.0625,-38.0625,31.375,-55.875,0.0,-2.0625,-16.9375,0.988953,0.147217,0.01825,0.0,0.0,0.01,0.0,-0.35,2.85,9.37,27
8.160926,-0.33,2.85,9.36,0.0625,0.3125,-0.0625,-35.0625,31.375,-55.0625,0.0,-2.0625,-16.9375,0.988953,0.147217,0.01825,0.0,0.01,0.0,-0.02,-0.35,2.85,9.37,27
8.171836,-0.33,2.86,9.35,-0.25,0.125,-0.1875,-35.0625,31.375,-55.0625,0.0,-2.0625,-16.9375,0.988953,0.147217,0.01825,0.0,0.0,0.01,-0.07,-0.35,2.85,9.37,27
8.182746,-0.35,2.86,9.3,-0.5,0.0,-0.0625,-35.0625,31.375,-55.0625,0.0,-2.0625,-16.9375,0.988953,0.147217,0.01825,0.0,0.0,0.0,0.01,-0.35,2.85,9.37,27
8.193657,-0.34,2.84,9.38,-0.0625,0.5,-0.125,-35.0625,31.375,-55.0625,0.0,-2.0625,-16.9375,0.988953,0.147217,0.01825,0.0,0.0,-0.01,0.0,-0.35,2.85,9.37,27
8.204567,-0.36,2.84,9.36,0.0,0.125,0.0,-36.5625,31.75,-55.5625,0.0,-2.0625,-16.9375,0.988953,0.147217,0.01825,0.0,-0.01,-0.01,0.0,-0.35,2.85,9.37,27
8.215477,-0.36,2.86,9.35,0.0625,0.0,-0.0625,-36.5625,31.75,-55.5625,0.0,-2.0625,-16.9375,0.988953,0.147217,0.01825,0.0,0.0,0.01,-0.02,-0.35,2.85,9.37,27
8.226388,-0.34,2.86,9.35,-0.0625,0.125,-0.0625,-36.5625,31.75,-55.5625,0.0,-2.0625,-16.9375,0.988953,0.147217,0.01825,0.0,-0.01,0.02,-0.03,-0.35,2.85,9.37,27
8.237298,-0.36,2.87,9.33,-0.0625,0.125,-0.0625,-36.5625,31.75,-55.5625,0.0,-2.0625,-16.9375,0.988953,0.147217,0.01825,0.0,-0.01,0.0,0.0,-0.35,2.85,9.37,27
8.248208,-0.36,2.85,9.36,-0.0625,-0.125,0.0,-36.5625,31.75,-55.5625,0.0,-2.0625,-16.9375,0.988953,0.147217,0.01825,0.0,-0.01,0.0,0.0,-0.35,2.85,9.37,27
8.259119,-0.37,2.85,9.38,-0.25,-0.0625,-0.125,-37.6875,32.0625,-55.5,0.0,-2.0625,-16.9375,0.988953,0.147217,0.01825,0.0,0.0,0.0,0.0,-0.35,2.85,9.37,27
8.270029,-0.35,2.84,9.37,0.0625,0.25,0.0,-37.6875,32.0625,-55.5,0.0,-2.0625,-16.9375,0.988953,0.147217,0.01825,0.0,0.0,0.01,-0.02,-0.35,2.85,9.37,27
8.280939,-0.34,2.86,9.35,-0.0625,0.0,-0.0625,-37.6875,32.0625,-55.5,0.0,-2.0625,-16.9375,0.988953,0.147217,0.01825,0.0,0.01,0.0,-0.02,-0.35,2.85,9.37,27
8.29185,-0.33,2.85,9.34,-0.0625,0.1875,0.0,-37.6875,32.0625,-55.5,0.0,-2.0625,-16.9375,0.988953,0.147217,0.01825,0.0,-0.01,-0.01,-0.01,-0.35,2.85,9.37,27
8.30276,-0.36,2.84,9.35,-0.125,0.0,-0.125,-33.25,29.875,-60.375,0.0,-2.0625,-16.9375,0.988953,0.147217,0.01825,0.0,0.0,0.0,-0.02,-0.35,2.85,9.37,27
8.31367,-0.36,2.83,9.35,0.0,-0.0625,-0.0625,-33.25,29.875,-60.375,0.0,-2.0625,-16.9375,0.988953,0.147217,0.01825,0.0,-0.01,-0.01,-0.01,-0.35,2.85,9.37,27
8.324581,-0.34,2.86,9.34,-0.0625,-0.125,-0.0625,-33.25,29.875,-60.375,0.0,-2.0625,-16.9375,0.988953,0.147217,0.01825,0.0,0.01,0.0,-0.04,-0.35,2.85,9.37,27
8.335491,-0.33,2.85,9.32,-0.0625,0.1875,0.0625,-33.25,29.875,-60.375,0.0,-2.0625,-16.9375,0.988953,0.147217,0.01825,0.0,0.0,0.0,0.0,-0.35,2.85,9.37,27
8.346401,-0.34,2.86,9.36,0.0,-0.125,0.0,-33.25,29.875,-60.375,0.0,-2.0625,-16.9375,0.988953,0.147217,0.01825,0.0,0.0,0.0,0.0,-0.35,2.85,9.37,27
8.357312,-0.35,2.84,9.33,0.1875,0.1875,0.0,-34.75,30.5625,-60.0,0.0,-2.0625,-16.9375,0.988953,0.147217,0.01825,0.0,-0.01,0.0,-0.01,-0.35,2.85,9.37,27
8.368222,-0.36,2.85,9.36,-0.125,0.1875,-0.0625,-34.75,30.5625,-60.0,0.0,-2.0625,-16.9375,0.988953,0.147217,0.01825,0.0,0.0,0.0,-0.03,-0.35,2.85,9.37,27
8.379132,-0.34,2.86,9.33,0.0,0.0625,-0.0625,-34.75,30.5625,-60.0,0.0,-2.0625,-16.9375,0.988953,0.147217,0.01825,0.0,0.0,0.02,0.0,-0.35,2.85,9.37,27
8.390043,-0.35,2.87,9.37,0.0625,0.3125,-0.125,-34.75,30.5625,-60.0,0.0,-2.0625,-16.9375,0.988953,0.147217,0.01825,0.0,0.01,0.0,-0.01,-0.35,2.85,9.37,27
8.400953,-0.33,2.85,9.36,-0.1875,0.125,-0.0625,-34.75,30.5625,-59.5625,0.0,-2.0625,-16.9375,0.988953,0.147217,0.01825,0.0,0.0,-0.01,-0.02,-0.35,2.85,9.37,27
8.411863,-0.34,2.84,9.35,-0.0625,0.1875,-0.125,-34.75,30.5625,-59.5625,0.0,-2.0625,-16.9375,0.988953,0.147217,0.01825,0.0,0.0,0.0,-0.03,-0.35,2.85,9.37,27
8.422774,-0.35,2.86,9.33,-0.25,0.0,-0.0625,-34.75,30.5625,-59.5625,0.0,-2.0625,-16.9375,0.988953,0.147217,0.01825,0.0,0.0,-0.01,-0.02,-0.35,2.85,9.37,27
8.433684,-0.35,2.84,9.34,-0.375,-0.25,0.0,-34.75,30.5625,-59.5625,0.0,-2.0625,-16.9375,0.988953,0.147217,0.01825,0.0,0.0,0.0,-0.03,-0.35,2.85,9.37,27
8.444594,-0.34,2.85,9.33,-0.25,0.0,-0.0625,-34.75,30.5625,-59.5625,0.0,-2.0625,-16.9375,0.988953,0.147217,0.01825,0.0,0.0,0.0,-0.01,-0.35,2.85,9.37,27
8.455505,-0.34,2.84,9.36,0.0,0.0,-0.0625,-34.75,31.0,-59.5625,0.0,-2.0625,-16.9375,0.988953,0.147217,0.01825,0.0,0.0,0.01,-0.01,-0.35,2.85,9.37,27
8.466415,-0.35,2.86,9.35,-0.375,-0.125,-0.125,-34.75,31.0,-59.5625,0.0,-2.0625,-16.9375,0.988953,0.147217,0.01825,0.0,0.0,0.01,-0.02,-0.35,2.85,9.37,27
8.477325,-0.35,2.83,9.33,-0.0625,0.1875,0.0,-34.75,31.0,-59.5625,0.0,-2.0625,-16.9375,0.988953,0.147217,0.01825,0.0,0.0,-0.01,-0.04,-0.35,2.85,9.37,27
8.488236,-0.34,2.85,9.36,-0.1875,0.1875,-0.125,-34.75,31.0,-59.5625,0.0,-2.0625,-16.9375,0.988953,0.147217,0.01825,0.0,0.0,0.0,-0.01,-0.35,2.85,9.37,27
8.499146,-0.34,2.84,9.36,-0.0625,0.0625,-0.125,-34.75,31.0,-59.5625,0.0,-2.0625,-16.9375,0.988953,0.147217,0.01825,0.0,0.0,0.0,-0.01,-0.35,2.85,9.37,27
8.510056,-0.34,2.85,9.36,-0.0625,0.125,-0.0625,-33.5625,30.5625,-61.1875,0.0,-2.0625,-16.9375,0.988953,0.147217,0.01825,0.0,0.0,0.02,-0.02,-0.35,2.85,9.37,27
8.520967,-0.34,2.88,9.34,-0.125,0.0,0.0,-33.5625,30.5625,-61.1875,0.0,-2.0625,-16.9375,0.988953,0.147217,0.01825,0.0,0.0,0.0,-0.02,-0.35,2.85,9.37,27
8.531877,-0.34,2.85,9.35,-0.25,-0.125,0.0,-33.5625,30.5625,-61.1875,0.0,-2.0625,-16.9375,0.988953,0.147217,0.01825,0.0,0.0,0.0,-0.03,-0.35,2.85,9.37,27
8.542787,-0.35,2.85,9.34,-0.25,-0.125,-0.125,-33.5625,30.5625,-61.1875,0.0,-2.0625,-16.9375,0.988953,0.147217,0.01825,0.0,0.0,0.01,-0.02,-0.35,2.85,9.37,27
