t,acc_X,acc_Y,acc_Z,gyr_X,gyr_Y,gyr_Z,mag_X,mag_Y,mag_Z,eul_heading,eul_roll,eul_pitch,quat_w,quat_x,quat_y,quat_z,lia_X,lia_Y,lia_Z,grv_X,grv_Y,grv_Z,temp
0.0,-0.33,3.33,9.29,-0.1875,-0.375,0.25,2.25,78.0625,-13.6875,0.0,-1.875,-19.6875,0.985046,0.171326,0.016968,0.0,0.0,0.02,0.1,-0.32,3.3,9.22,22
0.010998,-0.33,3.33,9.32,-0.1875,-0.375,0.375,2.25,78.0625,-13.6875,360.0,-1.875,-19.6875,0.985046,0.171326,0.016968,0.0,0.0,0.03,0.07,-0.32,3.3,9.22,22
0.021996,-0.32,3.34,9.29,0.125,-0.3125,0.125,2.25,78.0625,-13.6875,360.0,-1.875,-19.6875,0.985046,0.171326,0.016968,0.0,0.0,0.04,0.07,-0.32,3.3,9.22,22
0.032993,-0.33,3.35,9.29,-0.0625,-0.4375,0.0625,2.25,78.0625,-13.6875,360.0,-1.875,-19.6875,0.985046,0.171326,0.016968,0.0,0.0,0.03,0.06,-0.32,3.3,9.22,22
0.043991,-0.32,3.34,9.29,-0.25,-0.4375,0.25,1.0625,77.75,-12.875,360.0,-1.875,-19.6875,0.985046,0.171326,0.016968,0.0,0.0,0.04,0.07,-0.32,3.3,9.22,22
0.054989,-0.33,3.34,9.31,-0.125,-0.125,0.3125,1.0625,77.75,-12.875,360.0,-1.875,-19.6875,0.985046,0.171326,0.016968,0.0,0.0,0.03,0.08,-0.32,3.3,9.22,22
0.065987,-0.33,3.35,9.29,0.0,-0.25,0.1875,1.0625,77.75,-12.875,360.0,-1.875,-19.6875,0.985046,0.171326,0.016968,0.0,0.0,0.03,0.08,-0.32,3.3,9.22,22
0.076985,-0.32,3.34,9.3,-0.3125,0.0625,0.1875,1.0625,77.75,-12.875,359.9375,-1.875,-19.6875,0.985046,0.171326,0.016968,0.0,0.0,0.03,0.05,-0.32,3.3,9.22,22
0.087983,-0.32,3.34,9.28,0.1875,0.0,0.1875,1.0625,77.75,-12.875,359.9375,-1.875,-19.6875,0.985046,0.171326,0.016968,0.0,0.0,0.03,0.05,-0.32,3.3,9.22,22
0.09898,-0.31,3.32,9.3,0.0,-0.0625,0.25,3.375,77.375,-16.0,359.9375,-1.875,-19.6875,0.985046,0.171326,0.016968,0.0,0.0,0.02,0.08,-0.32,3.3,9.22,22
0.109978,-0.33,3.33,9.31,-0.0625,-0.25,0.25,3.375,77.375,-16.0,359.9375,-1.875,-19.6875,0.985046,0.171326,0.016968,0.0,0.0,0.05,0.06,-0.32,3.3,9.22,22
0.120976,-0.32,3.36,9.28,-0.1875,-0.3125,0.3125,3.375,77.375,-16.0,359.9375,-1.875,-19.6875,0.985046,0.171326,0.016968,0.0,0.0,0.02,0.1,-0.32,3.3,9.22,22
0.131974,-0.32,3.33,9.32,-0.25,-0.4375,0.375,3.375,77.375,-16.0,359.9375,-1.875,-19.6875,0.985046,0.171326,0.016968,0.0,0.0,0.01,0.1,-0.32,3.3,9.22,22
0.142972,-0.33,3.32,9.32,-0.1875,-0.5,0.25,5.5625,77.375,-14.375,359.9375,-1.875,-19.6875,0.985046,0.171326,0.016968,0.0,0.0,0.05,0.09,-0.32,3.3,9.22,22
0.153969,-0.33,3.36,9.31,-0.1875,-0.25,0.125,5.5625,77.375,-14.375,359.9375,-1.875,-19.6875,0.985046,0.171326,0.016968,0.0,0.0,0.04,0.08,-0.32,3.3,9.22,22
0.164967,-0.32,3.35,9.3,-0.125,-0.125,0.125,5.5625,77.375,-14.375,359.9375,-1.875,-19.6875,0.985046,0.171326,0.016968,0.0,0.0,0.03,0.06,-0.32,3.3,9.22,22
0.175965,-0.33,3.34,9.29,0.125,-0.0625,0.25,5.5625,77.375,-14.375,359.9375,-1.875,-19.6875,0.985046,0.171326,0.016968,0.0,-0.01,0.01,0.09,-0.32,3.3,9.22,22
0.186963,-0.33,3.32,9.32,0.0,-0.1875,0.25,5.5625,77.375,-14.375,359.9375,-1.875,-19.6875,0.985046,0.171326,0.016968,0.0,0.0,0.03,0.11,-0.32,3.3,9.22,22
0.197961,-0.33,3.34,9.34,0.0625,-0.4375,0.125,5.5625,77.75,-16.0,359.9375,-1.875,-19.6875,0.985046,0.171326,0.016968,0.0,0.01,0.03,0.1,-0.32,3.3,9.22,22
0.208959,-0.31,3.34,9.32,0.0,-0.0625,0.25,5.5625,77.75,-16.0,359.9375,-1.875,-19.6875,0.985046,0.171326,0.016968,0.0,0.0,0.02,0.07,-0.32,3.3,9.22,22
0.219956,-0.32,3.33,9.3,-0.125,-0.25,0.25,5.5625,77.75,-16.0,359.9375,-1.875,-19.6875,0.985046,0.171326,0.016968,0.0,0.0,0.02,0.06,-0.32,3.3,9.22,22
0.230954,-0.33,3.33,9.28,0.25,-0.3125,0.3125,5.5625,77.75,-16.0,359.9375,-1.875,-19.6875,0.985046,0.171326,0.016968,0.0,0.0,0.04,0.07,-0.32,3.3,9.22,22
0.241952,-0.33,3.35,9.3,-0.0625,-0.4375,0.25,5.5625,77.75,-16.0,359.9375,-1.875,-19.6875,0.985046,0.171326,0.016968,0.0,0.0,0.03,0.09,-0.32,3.3,9.22,22
0.25295,-0.32,3.34,9.32,-0.25,-0.375,0.125,5.5625,77.0625,-14.875,359.9375,-1.875,-19.6875,0.985046,0.171326,0.016968,0.0,0.0,0.05,0.07,-0.32,3.3,9.22,22
0.263948,-0.33,3.34,9.31,-0.125,-0.1875,0.3125,5.5625,77.0625,-14.875,359.9375,-1.875,-19.6875,0.985046,0.171326,0.016968,0.0,0.0,0.03,0.09,-0.32,3.3,9.22,22
0.274945,-0.33,3.34,9.29,0.0,-0.25,0.25,5.5625,77.0625,-14.875,359.9375,-1.875,-19.6875,0.985046,0.171326,0.016968,0.0,0.0,0.05,0.11,-0.32,3.3,9.22,22
0.285943,-0.33,3.36,9.33,0.0,-0.1875,0.125,5.5625,77.0625,-14.875,359.9375,-1.875,-19.6875,0.985046,0.171326,0.016968,0.0,0.0,0.05,0.08,-0.32,3.3,9.22,22
0.296941,-0.32,3.36,9.31,-0.375,-0.25,0.1875,5.5625,77.0625,-14.875,359.9375,-1.875,-19.6875,0.985046,0.171326,0.016968,0.0,0.0,0.05,0.08,-0.32,3.3,9.22,22
0.307939,-0.33,3.35,9.3,-0.125,-0.3125,0.1875,4.5,76.6875,-16.75,359.9375,-1.875,-19.6875,0.985046,0.171326,0.016968,0.0,0.01,0.0,0.06,-0.32,3.3,9.22,22
0.318937,-0.31,3.31,9.28,-0.0625,-0.3125,0.1875,4.5,76.6875,-16.75,359.9375,-1.875,-19.6875,0.985046,0.171326,0.016968,0.0,0.0,0.03,0.08,-0.32,3.3,9.22,22
0.329935,-0.32,3.34,9.3,-0.0625,-0.4375,0.1875,4.5,76.6875,-16.75,359.9375,-1.875,-19.6875,0.985046,0.171326,0.016968,0.0,0.0,0.03,0.08,-0.32,3.3,9.22,22
0.340932,-0.32,3.34,9.3,-0.0625,-0.375,0.25,4.5,76.6875,-16.75,359.9375,-1.875,-19.6875,0.985046,0.171326,0.016968,0.0,0.0,0.03,0.06,-0.32,3.3,9.22,22
0.35193,-0.33,3.34,9.29,0.0,-0.375,0.3125,4.0625,76.6875,-15.5625,359.9375,-1.875,-19.6875,0.985046,0.171326,0.016968,0.0,0.0,0.05,0.07,-0.32,3.3,9.22,22
0.362928,-0.32,3.36,9.3,0.0,0.0625,0.1875,4.0625,76.6875,-15.5625,359.9375,-1.875,-19.6875,0.985046,0.171326,0.016968,0.0,0.0,0.01,0.05,-0.32,3.3,9.22,22
0.373926,-0.33,3.36,9.3,0.1875,0.125,0.25,4.0625,76.6875,-15.5625,359.9375,-1.875,-19.6875,0.985046,0.171326,0.016968,0.0,0.0,0.05,0.08,-0.32,3.3,9.22,22
0.384924,-0.32,3.33,9.31,-0.25,-0.1875,0.3125,4.0625,76.6875,-15.5625,359.9375,-1.875,-19.6875,0.985046,0.171326,0.016968,0.0,0.0,0.03,0.06,-0.32,3.3,9.22,22
0.395921,-0.33,3.34,9.29,-0.125,-0.375,0.25,4.0625,76.6875,-15.5625,359.9375,-1.875,-19.6875,0.985046,0.171326,0.016968,0.0,0.0,0.03,0.06,-0.32,3.3,9.22,22
0.406919,-0.33,3.33,9.32,-0.0625,-0.25,0.25,5.5625,77.375,-14.875,359.9375,-1.875,-19.6875,0.985046,0.171326,0.016968,0.0,0.0,0.03,0.06,-0.32,3.3,9.22,22
0.417917,-0.32,3.34,9.29,0.0625,-0.125,0.25,5.5625,77.375,-14.875,359.9375,-1.875,-19.6875,0.985046,0.171326,0.016968,0.0,0.0,0.03,0.05,-0.32,3.3,9.22,22
0.428915,-0.33,3.34,9.27,-0.1875,-0.5,0.25,5.5625,77.375,-14.875,359.9375,-1.875,-19.6875,0.985046,0.171326,0.016968,0.0,-0.01,0.05,0.06,-0.32,3.3,9.22,22
0.439913,-0.33,3.36,9.28,-0.125,-0.375,0.1875,5.5625,77.375,-14.875,359.9375,-1.875,-19.6875,0.985046,0.171326,0.016968,0.0,0.0,0.04,0.05,-0.32,3.3,9.22,22
0.450911,-0.33,3.35,9.28,-0.0625,-0.1875,0.25,4.875,76.25,-15.5625,359.9375,-1.875,-19.6875,0.985046,0.171326,0.016968,0.0,0.0,0.03,0.07,-0.32,3.3,9.22,22
0.461908,-0.33,3.34,9.3,-0.1875,-0.3125,0.3125,4.875,76.25,-15.5625,359.9375,-1.875,-19.6875,0.985046,0.171326,0.016968,0.0,0.0,0.03,0.07,-0.32,3.3,9.22,22
0.472906,-0.32,3.34,9.27,-0.0625,-0.125,0.0625,4.875,76.25,-15.5625,359.9375,-1.875,-19.6875,0.985046,0.171326,0.016968,0.0,0.0,0.0,0.06,-0.32,3.3,9.22,22
0.483904,-0.32,3.3,9.28,0.125,-0.1875,0.125,4.875,76.25,-15.5625,359.9375,-1.875,-19.6875,0.985046,0.171326,0.016968,0.0,0.0,0.03,0.06,-0.32,3.3,9.22,22
0.494902,-0.32,3.34,9.29,-0.0625,-0.1875,0.3125,4.875,76.25,-15.5625,359.9375,-1.875,-19.6875,0.985046,0.171326,0.016968,0.0,0.0,0.03,0.06,-0.32,3.3,9.22,22
0.5059,-0.32,3.34,9.29,-0.25,-0.25,0.3125,4.0625,76.6875,-15.25,359.9375,-1.875,-19.6875,0.985046,0.171326,0.016968,0.0,0.0,0.03,0.1,-0.32,3.3,9.22,22
0.516898,-0.32,3.34,9.29,-0.1875,-0.375,0.25,4.0625,76.6875,-15.25,359.9375,-1.875,-19.6875,0.985046,0.171326,0.016968,0.0,0.0,0.03,0.07,-0.32,3.3,9.22,22
0.527895,-0.32,3.36,9.32,0.125,-0.3125,0.375,4.0625,76.6875,-15.25,359.9375,-1.875,-19.6875,0.985046,0.171326,0.016968,0.0,0.0,0.05,0.09,-0.32,3.3,9.22,22
0.538893,-0.32,3.36,9.28,-0.3125,-0.1875,0.0625,4.0625,76.6875,-15.25,359.9375,-1.875,-19.6875,0.985046,0.171326,0.016968,0.0,0.0,0.05,0.05,-0.32,3.3,9.22,22
0.549891,-0.32,3.33,9.27,0.0625,0.0,0.25,1.0625,77.75,-10.875,359.9375,-1.875,-19.6875,0.985046,0.171326,0.016968,0.0,0.0,0.04,0.08,-0.32,3.3,9.22,22
0.560889,-0.32,3.35,9.3,0.0625,-0.1875,0.125,1.0625,77.75,-10.875,359.9375,-1.875,-19.6875,0.985046,0.171326,0.016968,0.0,0.0,0.05,0.05,-0.32,3.3,9.22,22
0.571887,-0.32,3.36,9.28,0.0,-0.25,0.3125,1.0625,77.75,-10.875,359.9375,-1.875,-19.6875,0.985046,0.171326,0.016968,0.0,0.0,0.02,0.05,-0.32,3.3,9.22,22
0.582884,-0.32,3.33,9.27,-0.375,-0.3125,0.3125,1.0625,77.75,-10.875,359.9375,-1.875,-19.6875,0.985046,0.171326,0.016968,0.0,0.0,0.02,0.09,-0.32,3.3,9.22,22
0.593882,-0.33,3.33,9.31,-0.125,-0.25,0.1875,1.5,79.5625,-10.5625,359.9375,-1.875,-19.6875,0.985046,0.171326,0.016968,0.0,0.0,0.02,0.08,-0.32,3.3,9.22,22
0.60488,-0.32,3.33,9.31,-0.125,-0.3125,0.25,1.5,79.5625,-10.5625,359.9375,-1.875,-19.6875,0.985046,0.171326,0.016968,0.0,0.0,0.04,0.09,-0.32,3.3,9.22,22
0.615878,-0.33,3.35,9.31,0.0625,-0.3125,0.1875,1.5,79.5625,-10.5625,359.9375,-1.875,-19.6875,0.985046,0.171326,0.016968,0.0,0.0,0.04,0.06,-0.32,3.3,9.22,22
0.626876,-0.32,3.35,9.28,-0.3125,-0.25,0.25,1.5,79.5625,-10.5625,359.9375,-1.875,-19.6875,0.985046,0.171326,0.016968,0.0,0.0,0.02,0.08,-0.32,3.3,9.22,22
0.637874,-0.32,3.33,9.31,0.0,-0.3125,0.25,1.5,79.5625,-10.5625,359.9375,-1.875,-19.6875,0.985046,0.171326,0.016968,0.0,0.0,0.02,0.09,-0.32,3.3,9.22,22
0.648871,-0.33,3.33,9.31,-0.125,0.1875,0.1875,5.5625,77.75,-16.375,359.9375,-1.875,-19.6875,0.985046,0.171326,0.016968,0.0,0.0,0.03,0.08,-0.32,3.3,9.22,22
0.659869,-0.32,3.34,9.3,-0.25,-0.5,0.125,5.5625,77.75,-16.375,359.9375,-1.875,-19.6875,0.985046,0.171326,0.016968,0.0,0.0,0.03,0.08,-0.32,3.3,9.22,22
0.670867,-0.32,3.35,9.29,-0.3125,-0.3125,0.25,5.5625,77.75,-16.375,359.9375,-1.875,-19.6875,0.985046,0.171326,0.016968,0.0,0.0,0.05,0.09,-0.32,3.3,9.22,22
0.681865,-0.33,3.36,9.31,-0.3125,-0.25,0.3125,5.5625,77.75,-16.375,359.9375,-1.875,-19.6875,0.985046,0.171326,0.016968,0.0,0.0,0.02,0.1,-0.32,3.3,9.22,22
0.692863,-0.33,3.33,9.32,-0.1875,-0.4375,0.1875,5.5625,77.75,-16.375,359.9375,-1.875,-19.6875,0.985046,0.171326,0.016968,0.0,0.0,0.02,0.1,-0.32,3.3,9.22,22
0.70386,-0.33,3.35,9.29,0.0,-0.125,0.125,4.0625,77.75,-15.25,359.9375,-1.875,-19.6875,0.985046,0.171326,0.016968,0.0,0.0,0.04,0.04,-0.32,3.3,9.22,22
0.714858,-0.32,3.35,9.27,0.0,-0.3125,0.125,4.0625,77.75,-15.25,359.9375,-1.875,-19.6875,0.985046,0.171326,0.016968,0.0,0.0,0.04,0.04,-0.32,3.3,9.22,22
0.725856,-0.32,3.35,9.27,-0.0625,-0.125,0.1875,4.0625,77.75,-15.25,359.9375,-1.875,-19.6875,0.985046,0.171326,0.016968,0.0,0.0,0.03,0.08,-0.32,3.3,9.22,22
0.736854,-0.32,3.34,9.3,0.0,-0.3125,0.125,4.0625,77.75,-15.25,359.9375,-1.875,-19.6875,0.985046,0.171326,0.016968,0.0,0.0,0.02,0.09,-0.32,3.3,9.22,22
0.747852,-0.33,3.33,9.31,-0.125,-0.5625,0.1875,7.0625,76.25,-14.0625,359.9375,-1.875,-19.6875,0.985046,0.171326,0.016968,0.0,0.01,0.04,0.1,-0.32,3.3,9.22,22
0.75885,-0.31,3.35,9.32,-0.1875,-0.375,0.1875,7.0625,76.25,-14.0625,359.9375,-1.875,-19.6875,0.985046,0.171326,0.016968,0.0,0.0,0.02,0.04,-0.32,3.3,9.22,22
0.769847,-0.33,3.33,9.27,-0.1875,-0.4375,0.1875,7.0625,76.25,-14.0625,359.9375,-1.875,-19.6875,0.985046,0.171326,0.016968,0.0,-0.01,0.05,0.05,-0.32,3.3,9.22,22
0.780845,-0.33,3.36,9.28,0.0625,-0.5,0.3125,7.0625,76.25,-14.0625,359.9375,-1.875,-19.6875,0.985046,0.171326,0.016968,0.0,0.0,0.03,0.07,-0.32,3.3,9.22,22
0.791843,-0.32,3.34,9.29,-0.125,-0.5,0.25,7.0625,76.25,-14.0625,359.9375,-1.875,-19.6875,0.985046,0.171326,0.016968,0.0,0.0,0.04,0.08,-0.32,3.3,9.22,22
0.802841,-0.32,3.35,9.3,-0.125,-0.125,0.3125,4.0625,77.375,-16.0625,359.9375,-1.875,-19.6875,0.985046,0.171326,0.016968,0.0,0.01,0.05,0.08,-0.32,3.3,9.22,22
0.813839,-0.31,3.36,9.31,-0.0625,-0.25,0.3125,4.0625,77.375,-16.0625,359.9375,-1.875,-19.6875,0.985046,0.171326,0.016968,0.0,0.0,0.04,0.06,-0.32,3.3,9.22,22
0.824836,-0.32,3.35,9.29,-0.25,-0.4375,0.3125,4.0625,77.375,-16.0625,359.9375,-1.875,-19.6875,0.985046,0.171326,0.016968,0.0,0.0,0.01,0.06,-0.32,3.3,9.22,22
0.835834,-0.33,3.32,9.29,0.0,-0.375,0.25,4.0625,77.375,-16.0625,359.9375,-1.875,-19.6875,0.985046,0.171326,0.016968,0.0,0.0,0.02,0.07,-0.32,3.3,9.22,22
0.846832,-0.32,3.33,9.3,-0.1875,-0.125,0.25,4.0625,77.375,-16.0625,359.9375,-1.875,-19.6875,0.985046,0.171326,0.016968,0.0,-0.01,0.03,0.09,-0.32,3.3,9.22,22
0.85783,-0.34,3.34,9.31,0.0,-0.0625,0.1875,5.5625,78.1875,-16.0625,359.9375,-1.875,-19.6875,0.985046,0.171326,0.016968,0.0,0.0,0.01,0.1,-0.32,3.3,9.22,22
0.868828,-0.33,3.32,9.32,0.125,-0.0625,0.375,5.5625,78.1875,-16.0625,359.9375,-1.875,-19.6875,0.985046,0.171326,0.016968,0.0,0.0,0.03,0.1,-0.32,3.3,9.22,22
0.879826,-0.33,3.34,9.32,-0.0625,-0.4375,0.25,5.5625,78.1875,-16.0625,359.9375,-1.875,-19.6875,0.985046,0.171326,0.016968,0.0,0.0,0.04,0.08,-0.32,3.3,9.22,22
0.890823,-0.32,3.35,9.3,0.0,-0.5,0.3125,5.5625,78.1875,-16.0625,359.9375,-1.875,-19.6875,0.985046,0.171326,0.016968,0.0,0.0,0.02,0.07,-0.32,3.3,9.22,22
0.901821,-0.33,3.33,9.29,0.125,-0.1875,0.25,5.5625,78.1875,-16.0625,359.9375,-1.875,-19.6875,0.985046,0.171326,0.016968,0.0,0.0,0.03,0.06,-0.32,3.3,9.22,22
0.912819,-0.32,3.34,9.28,0.0625,-0.0625,0.1875,6.375,75.875,-15.25,359.9375,-1.875,-19.6875,0.985046,0.171326,0.016968,0.0,0.0,0.03,0.09,-0.32,3.3,9.22,22
0.923817,-0.32,3.34,9.3,-0.1875,-0.25,0.3125,6.375,75.875,-15.25,359.9375,-1.875,-19.6875,0.985046,0.171326,0.016968,0.0,0.0,0.05,0.07,-0.32,3.3,9.22,22
0.934815,-0.32,3.36,9.29,-0.0625,-0.125,0.25,6.375,75.875,-15.25,359.9375,-1.875,-19.6875,0.985046,0.171326,0.016968,0.0,0.0,0.04,0.06,-0.32,3.3,9.22,22
0.945812,-0.32,3.35,9.28,-0.0625,-0.0625,0.1875,6.375,75.875,-15.25,359.9375,-1.875,-19.6875,0.985046,0.171326,0.016968,0.0,0.0,0.02,0.08,-0.32,3.3,9.22,22
0.95681,-0.33,3.33,9.31,-0.1875,-0.3125,0.125,6.375,75.875,-15.25,359.9375,-1.875,-19.6875,0.985046,0.171326,0.016968,0.0,0.0,0.02,0.08,-0.32,3.3,9.22,22
0.967808,-0.33,3.33,9.31,-0.0625,-0.125,0.1875,6.0,77.375,-15.5625,359.9375,-1.875,-19.6875,0.985046,0.171326,0.016968,0.0,0.0,0.02,0.08,-0.32,3.3,9.22,22
0.978806,-0.32,3.33,9.3,0.0625,-0.1875,0.25,6.0,77.375,-15.5625,359.9375,-1.875,-19.6875,0.985046,0.171326,0.016968,0.0,0.01,0.03,0.05,-0.32,3.3,9.22,22
0.989804,-0.31,3.34,9.27,-0.0625,-0.1875,0.25,6.0,77.375,-15.5625,359.9375,-1.875,-19.6875,0.985046,0.171326,0.016968,0.0,0.0,0.03,0.08,-0.32,3.3,9.22,22
1.000802,-0.33,3.34,9.3,0.0625,-0.25,0.25,6.0,77.375,-15.5625,359.9375,-1.875,-19.6875,0.985046,0.171326,0.016968,0.0,-0.01,0.03,0.08,-0.32,3.3,9.22,22
1.011799,-0.33,3.34,9.3,0.1875,-0.4375,0.375,0.75,78.5625,-10.875,359.9375,-1.875,-19.6875,0.985046,0.171326,0.016968,0.0,0.0,0.03,0.06,-0.32,3.3,9.22,22
1.022797,-0.32,3.34,9.31,0.0,0.0,0.125,0.75,78.5625,-10.875,359.9375,-1.875,-19.6875,0.985046,0.171326,0.016968,0.0,0.0,0.03,0.09,-0.32,3.3,9.22,22
1.033795,-0.33,3.34,9.3,-0.0625,0.125,0.1875,0.75,78.5625,-10.875,359.9375,-1.875,-19.6875,0.985046,0.171326,0.016968,0.0,0.0,0.03,0.09,-0.32,3.3,9.22,22
1.044793,-0.33,3.34,9.32,-0.25,-0.4375,0.3125,0.75,78.5625,-10.875,359.9375,-1.875,-19.6875,0.985046,0.171326,0.016968,0.0,0.0,0.04,0.07,-0.32,3.3,9.22,22
1.055791,-0.33,3.35,9.3,-0.25,-0.25,0.3125,0.75,78.5625,-10.875,359.9375,-1.875,-19.6875,0.985046,0.171326,0.016968,0.0,0.0,0.04,0.07,-0.32,3.3,9.22,22
1.066788,-0.32,3.32,9.3,-0.25,-0.0625,0.25,1.875,78.5625,-10.875,359.9375,-1.875,-19.6875,0.985046,0.171326,0.016968,0.0,0.0,0.02,0.08,-0.32,3.3,9.22,22
1.077786,-0.33,3.33,9.31,-0.0625,-0.3125,0.3125,1.875,78.5625,-10.875,359.9375,-1.875,-19.6875,0.985046,0.171326,0.016968,0.0,0.0,0.03,0.07,-0.32,3.3,9.22,22
1.088784,-0.33,3.34,9.29,-0.25,-0.3125,0.125,1.875,78.5625,-10.875,359.9375,-1.875,-19.6875,0.985046,0.171326,0.016968,0.0,0.0,0.03,0.05,-0.32,3.3,9.22,22
1.099782,-0.32,3.34,9.27,-0.125,-0.3125,0.25,1.875,78.5625,-10.875,359.9375,-1.875,-19.6875,0.985046,0.171326,0.016968,0.0,0.0,0.03,0.09,-0.32,3.3,9.22,22
1.11078,-0.32,3.34,9.32,-0.125,-0.5,0.3125,1.0625,77.75,-11.25,359.9375,-1.875,-19.6875,0.985046,0.171326,0.016968,0.0,0.0,0.0,0.09,-0.32,3.3,9.22,22
1.121778,-0.33,3.31,9.22,-0.25,-0.3125,0.1875,1.0625,77.75,-11.25,359.9375,-1.875,-19.6875,0.985046,0.171326,0.016968,0.0,0.0,0.0,0.0,-0.32,3.3,9.22,22
1.132775,-0.32,3.3,9.2,0.0625,-0.1875,0.25,1.0625,77.75,-11.25,359.9375,-1.875,-19.6875,0.985046,0.171326,0.016968,0.0,0.0,0.0,-0.03,-0.32,3.3,9.22,22
1.143773,-0.32,3.3,9.19,-0.0625,-0.5,0.3125,1.0625,77.75,-11.25,359.9375,-1.875,-19.6875,0.985046,0.171326,0.016968,0.0,0.0,0.0,0.0,-0.32,3.3,9.22,22
1.154771,-0.32,3.31,9.22,0.125,-0.1875,0.25,1.0625,77.75,-11.25,359.9375,-1.875,-19.6875,0.985046,0.171326,0.016968,0.0,0.0,0.0,0.0,-0.32,3.3,9.22,22
1.165769,-0.33,3.31,9.21,0.1875,-0.125,0.1875,3.0,77.0625,-11.375,359.9375,-1.875,-19.6875,0.985046,0.171326,0.016968,0.0,0.0,0.01,0.0,-0.32,3.3,9.22,22
1.176767,-0.32,3.32,9.22,0.0,-0.5,0.1875,3.0,77.0625,-11.375,359.9375,-1.875,-19.6875,0.985046,0.171326,0.016968,0.0,0.0,0.01,-0.02,-0.32,3.3,9.22,22
1.187764,-0.32,3.32,9.19,-0.125,-0.5,0.1875,3.0,77.0625,-11.375,359.9375,-1.875,-19.6875,0.985046,0.171326,0.016968,0.0,0.0,0.0,-0.01,-0.32,3.3,9.22,22
1.198762,-0.32,3.31,9.2,-0.375,-0.25,0.25,3.0,77.0625,-11.375,359.9375,-1.875,-19.6875,0.985046,0.171326,0.016968,0.0,0.0,0.0,0.0,-0.32,3.3,9.22,22
1.20976,-0.33,3.31,9.22,0.0625,0.0625,0.1875,5.25,77.0625,-14.5,359.9375,-1.875,-19.6875,0.985046,0.171326,0.016968,0.0,0.0,0.0,-0.01,-0.32,3.3,9.22,22
1.220758,-0.32,3.31,9.21,0.0625,0.125,0.25,5.25,77.0625,-14.5,359.9375,-1.875,-19.6875,0.985046,0.171326,0.016968,0.0,0.0,0.0,0.0,-0.32,3.3,9.22,22
1.231756,-0.33,3.3,9.22,0.0,-0.0625,0.1875,5.25,77.0625,-14.5,359.9375,-1.875,-19.6875,0.985046,0.171326,0.016968,0.0,0.0,0.01,0.0,-0.32,3.3,9.22,22
1.242754,-0.33,3.32,9.21,-0.0625,-0.25,0.1875,5.25,77.0625,-14.5,359.9375,-1.875,-19.6875,0.985046,0.171326,0.016968,0.0,0.0,0.01,-0.03,-0.32,3.3,9.22,22
1.253751,-0.32,3.32,9.19,-0.0625,-0.25,0.125,5.25,77.0625,-14.5,359.9375,-1.875,-19.6875,0.985046,0.171326,0.016968,0.0,0.0,0.0,0.0,-0.32,3.3,9.22,22
1.264749,-0.32,3.3,9.23,-0.1875,-0.3125,0.0625,4.5,77.0625,-14.875,359.9375,-1.875,-19.6875,0.985046,0.171326,0.016968,0.0,0.0,0.01,0.0,-0.32,3.3,9.22,22
1.275747,-0.33,3.32,9.23,-0.0625,-0.3125,0.25,4.5,77.0625,-14.875,359.9375,-1.875,-19.6875,0.985046,0.171326,0.016968,0.0,0.0,0.0,0.03,-0.32,3.3,9.22,22
1.286745,-0.33,3.3,9.25,-0.25,-0.3125,0.25,4.5,77.0625,-14.875,359.9375,-1.875,-19.6875,0.985046,0.171326,0.016968,0.0,0.0,0.0,0.0,-0.32,3.3,9.22,22
1.297743,-0.33,3.3,9.21,-0.1875,-0.4375,0.1875,4.5,77.0625,-14.875,359.9375,-1.875,-19.6875,0.985046,0.171326,0.016968,0.0,0.0,0.0,-0.03,-0.32,3.3,9.22,22
1.308741,-0.33,3.31,9.18,-0.0625,-0.1875,0.3125,4.5,77.0625,-14.875,359.9375,-1.875,-19.6875,0.985046,0.171326,0.016968,0.0,-0.01,-0.01,0.0,-0.32,3.3,9.22,22
1.319738,-0.33,3.29,9.21,0.0,0.0,0.125,4.875,78.1875,-16.375,359.9375,-1.875,-19.6875,0.985046,0.171326,0.016968,0.0,0.0,0.0,-0.02,-0.32,3.3,9.22,22
1.330736,-0.32,3.3,9.19,-0.25,-0.375,0.1875,4.875,78.1875,-16.375,359.9375,-1.875,-19.6875,0.985046,0.171326,0.016968,0.0,0.0,0.01,0.0,-0.32,3.3,9.22,22
1.341734,-0.32,3.32,9.22,-0.1875,-0.25,0.3125,4.875,78.1875,-16.375,359.9375,-1.875,-19.6875,0.985046,0.171326,0.016968,0.0,0.0,0.01,0.0,-0.32,3.3,9.22,22
1.352732,-0.32,3.29,9.19,-0.25,-0.5,0.125,4.875,78.1875,-16.375,359.9375,-1.875,-19.6875,0.985046,0.171326,0.016968,0.0,0.0,-0.01,-0.03,-0.32,3.3,9.22,22
1.36373,-0.33,3.29,9.21,0.0,-0.25,0.1875,4.875,78.1875,-16.375,359.9375,-1.875,-19.6875,0.985046,0.171326,0.016968,0.0,0.0,-0.01,-0.01,-0.32,3.3,9.22,22
1.374727,-0.33,3.31,9.22,0.0,-0.1875,0.1875,3.375,78.1875,-14.0625,359.9375,-1.875,-19.6875,0.985046,0.171326,0.016968,0.0,0.0,0.0,0.0,-0.32,3.3,9.22,22
1.385725,-0.32,3.3,9.21,-0.0625,-0.625,0.375,3.375,78.1875,-14.0625,0.0,-1.875,-19.6875,0.985046,0.171326,0.016907,0.0,0.01,0.01,-0.02,-0.32,3.3,9.22,22
1.396723,-0.31,3.32,9.19,-0.0625,-0.25,0.3125,3.375,78.1875,-14.0625,0.0,-1.875,-19.6875,0.985046,0.171326,0.016907,0.0,0.0,-0.01,-0.02,-0.32,3.3,9.22,22
1.407721,-0.33,3.29,9.2,-0.3125,-0.5,0.1875,3.375,78.1875,-14.0625,0.0,-1.875,-19.6875,0.985046,0.171326,0.016907,0.0,0.0,0.01,0.0,-0.32,3.3,9.22,22
1.418719,-0.33,3.32,9.21,-0.0625,-0.375,0.3125,3.75,76.6875,-14.875,0.0,-1.875,-19.6875,0.985046,0.171326,0.016907,0.0,0.0,0.0,-0.02,-0.32,3.3,9.22,22
1.429717,-0.33,3.31,9.21,-0.0625,-0.1875,0.25,3.75,76.6875,-14.875,0.0,-1.875,-19.6875,0.985046,0.171326,0.016907,0.0,0.0,0.0,0.0,-0.32,3.3,9.22,22
1.440714,-0.32,3.31,9.23,-0.0625,-0.1875,0.1875,3.75,76.6875,-14.875,0.0,-1.875,-19.6875,0.985046,0.171326,0.016907,0.0,0.0,0.0,0.0,-0.32,3.3,9.22,22
1.451712,-0.33,3.31,9.21,-0.1875,-0.25,0.25,3.75,76.6875,-14.875,0.0,-1.875,-19.6875,0.985046,0.171326,0.016907,0.0,0.0,0.0,0.0,-0.32,3.3,9.22,22
1.46271,-0.33,3.31,9.21,-0.0625,-0.1875,0.25,3.75,76.6875,-14.875,0.0,-1.875,-19.6875,0.985046,0.171326,0.016907,0.0,0.0,0.0,0.0,-0.32,3.3,9.22,22
1.473708,-0.33,3.3,9.2,0.0,-0.3125,0.25,2.5625,77.75,-10.875,0.0,-1.875,-19.6875,0.985046,0.171326,0.016907,0.0,0.0,0.0,-0.01,-0.32,3.3,9.22,22
1.484706,-0.33,3.31,9.2,0.1875,-0.25,0.1875,2.5625,77.75,-10.875,0.0,-1.875,-19.6875,0.985046,0.171326,0.016907,0.0,0.0,0.0,-0.01,-0.32,3.3,9.22,22
1.495703,-0.32,3.31,9.2,-0.1875,-0.3125,0.3125,2.5625,77.75,-10.875,0.0,-1.875,-19.6875,0.985046,0.171326,0.016907,0.0,0.0,0.02,-0.01,-0.32,3.3,9.22,22
1.506701,-0.32,3.33,9.21,-0.1875,-0.5,0.25,2.5625,77.75,-10.875,0.0,-1.875,-19.6875,0.985046,0.171326,0.016907,0.0,0.0,0.0,0.0,-0.32,3.3,9.22,22
1.517699,-0.33,3.31,9.22,-0.25,-0.4375,0.125,0.75,77.375,-10.875,0.0,-1.875,-19.6875,0.985046,0.171326,0.016907,0.0,0.0,0.02,0.0,-0.32,3.3,9.22,22
1.528697,-0.32,3.32,9.21,-0.1875,-0.25,0.25,0.75,77.375,-10.875,0.0,-1.875,-19.6875,0.985046,0.171326,0.016907,0.0,0.0,0.01,-0.01,-0.32,3.3,9.22,22
1.539695,-0.33,3.33,9.2,0.0,-0.125,0.3125,0.75,77.375,-10.875,0.0,-1.875,-19.6875,0.985046,0.171326,0.016907,0.0,0.0,0.02,0.0,-0.32,3.3,9.22,22
1.550693,-0.33,3.33,9.22,0.0,-0.3125,0.125,0.75,77.375,-10.875,0.0,-1.875,-19.6875,0.985046,0.171326,0.016907,0.0,0.0,0.01,0.0,-0.32,3.3,9.22,22
1.56169,-0.32,3.32,9.22,-0.0625,-0.3125,0.375,0.75,77.375,-10.875,0.0,-1.875,-19.6875,0.985046,0.171326,0.016907,0.0,0.0,0.01,0.0,-0.32,3.3,9.22,22
1.572688,-0.33,3.31,9.22,-0.125,-0.0625,0.1875,2.5625,78.5625,-10.875,0.0,-1.875,-19.6875,0.985046,0.171326,0.016907,0.0,0.0,0.0,0.0,-0.32,3.3,9.22,22
1.583686,-0.32,3.31,9.22,-0.1875,-0.125,0.25,2.5625,78.5625,-10.875,0.0,-1.875,-19.6875,0.985046,0.171326,0.016907,0.0,0.0,0.0,-0.01,-0.32,3.3,9.22,22
1.594684,-0.32,3.31,9.21,-0.0625,-0.3125,0.25,2.5625,78.5625,-10.875,0.0,-1.875,-19.6875,0.985046,0.171326,0.016907,0.0,0.0,0.01,-0.04,-0.32,3.3,9.22,22
1.605682,-0.32,3.32,9.18,0.0,-0.3125,0.25,2.5625,78.5625,-10.875,0.0,-1.875,-19.6875,0.985046,0.171326,0.016907,0.0,0.01,0.0,-0.02,-0.32,3.3,9.22,22
1.616679,-0.31,3.3,9.2,0.125,-0.25,0.1875,1.5,77.75,-10.875,0.0,-1.875,-19.6875,0.985046,0.171326,0.016907,0.0,0.0,0.01,0.0,-0.32,3.3,9.22,22
1.627677,-0.32,3.32,9.22,0.0,-0.25,0.1875,1.5,77.75,-10.875,0.0,-1.875,-19.6875,0.985046,0.171326,0.016907,0.0,-0.01,-0.01,0.0,-0.32,3.3,9.22,22
1.638675,-0.34,3.29,9.22,-0.0625,-0.1875,0.1875,1.5,77.75,-10.875,0.0,-1.875,-19.6875,0.985046,0.171326,0.016907,0.0,-0.01,0.0,0.0,-0.32,3.3,9.22,22
1.649673,-0.33,3.31,9.21,-0.125,-0.125,0.1875,1.5,77.75,-10.875,0.0,-1.875,-19.6875,0.985046,0.171326,0.016907,0.0,0.0,0.01,-0.01,-0.32,3.3,9.22,22
1.660671,-0.33,3.32,9.21,-0.125,-0.125,0.25,1.5,77.75,-10.875,0.0,-1.875,-19.6875,0.985046,0.171326,0.016907,0.0,0.0,0.0,0.0,-0.32,3.3,9.22,22
1.671669,-0.32,3.31,9.23,0.0,-0.125,0.25,3.375,77.375,-10.875,0.0,-1.875,-19.6875,0.985046,0.171326,0.016907,0.0,0.0,0.0,-0.02,-0.32,3.3,9.22,22
1.682666,-0.33,3.31,9.19,-0.25,-0.4375,0.1875,3.375,77.375,-10.875,0.0,-1.875,-19.6875,0.985046,0.171326,0.016907,0.0,0.0,0.0,-0.01,-0.32,3.3,9.22,22
1.693664,-0.32,3.31,9.21,-0.3125,-0.375,0.25,3.375,77.375,-10.875,0.0,-1.875,-19.6875,0.985046,0.171326,0.016907,0.0,0.0,0.0,0.0,-0.32,3.3,9.22,22
1.704662,-0.33,3.3,9.22,-0.0625,-0.125,0.0625,3.375,77.375,-10.875,0.0,-1.875,-19.6875,0.985046,0.171326,0.016907,0.0,0.0,0.0,0.0,-0.32,3.3,9.22,22
1.71566,-0.33,3.3,9.22,0.0,-0.0625,0.375,3.375,77.375,-10.875,0.0,-1.875,-19.6875,0.985046,0.171326,0.016907,0.0,0.0,0.03,0.0,-0.32,3.3,9.22,22
1.726658,-0.32,3.34,9.22,-0.0625,-0.0625,0.125,1.875,78.1875,-9.75,0.0,-1.875,-19.6875,0.985046,0.171326,0.016907,0.0,0.0,0.0,-0.01,-0.32,3.3,9.22,22
1.737655,-0.32,3.32,9.22,-0.1875,0.0,0.25,1.875,78.1875,-9.75,0.0,-1.875,-19.6875,0.985046,0.171326,0.016907,0.0,0.0,0.01,0.0,-0.32,3.3,9.22,22
1.748653,-0.32,3.3,9.18,-0.0625,-0.5,0.1875,1.875,78.1875,-9.75,0.0,-1.875,-19.6875,0.985046,0.171326,0.016907,0.0,0.0,0.0,0.0,-0.32,3.3,9.22,22
1.759651,-0.32,3.31,9.22,0.1875,0.0,0.3125,1.875,78.1875,-9.75,0.0,-1.875,-19.6875,0.985046,0.171326,0.016907,0.0,0.0,0.0,0.0,-0.32,3.3,9.22,22
1.770649,-0.32,3.31,9.22,-0.1875,-0.1875,0.3125,1.875,78.1875,-9.75,0.0,-1.875,-19.6875,0.985046,0.171326,0.016907,0.0,0.0,0.0,0.0,-0.32,3.3,9.22,22
1.781647,-0.32,3.31,9.22,-0.125,-0.375,0.25,3.375,77.75,-10.875,0.0,-1.875,-19.6875,0.985046,0.171326,0.016907,0.0,0.01,0.0,0.0,-0.32,3.3,9.22,22
1.792645,-0.31,3.31,9.22,0.0,-0.3125,0.0,3.375,77.75,-10.875,0.0,-1.875,-19.6875,0.985046,0.171326,0.016907,0.0,0.0,0.01,0.0,-0.32,3.3,9.22,22
1.803642,-0.33,3.32,9.21,-0.25,-0.3125,0.25,3.375,77.75,-10.875,0.0,-1.875,-19.6875,0.985046,0.171326,0.016907,0.0,0.0,0.0,0.0,-0.32,3.3,9.22,22
1.81464,-0.33,3.31,9.21,-0.1875,-0.375,0.375,3.375,77.75,-10.875,0.0,-1.875,-19.6875,0.985046,0.171326,0.016907,0.0,0.0,0.0,0.0,-0.32,3.3,9.22,22
1.825638,-0.33,3.31,9.22,0.0,-0.25,0.3125,1.875,77.75,-10.875,0.0,-1.875,-19.6875,0.985046,0.171326,0.016907,0.0,0.0,0.0,-0.01,-0.32,3.3,9.22,22
1.836636,-0.32,3.31,9.2,0.0,-0.125,0.1875,1.875,77.75,-10.875,0.0,-1.875,-19.6875,0.985046,0.171326,0.016907,0.0,0.0,-0.01,-0.01,-0.32,3.3,9.22,22
1.847634,-0.32,3.29,9.2,-0.125,-0.375,0.1875,1.875,77.75,-10.875,0.0,-1.875,-19.6875,0.985046,0.171326,0.016907,0.0,0.01,0.0,-0.02,-0.32,3.3,9.22,22
1.858631,-0.31,3.31,9.2,-0.1875,-0.5625,0.25,1.875,77.75,-10.875,0.0,-1.875,-19.6875,0.985046,0.171326,0.016907,0.0,0.0,-0.02,-0.01,-0.32,3.3,9.22,22
1.869629,-0.32,3.28,9.21,0.125,-0.0625,0.25,1.875,77.75,-10.875,0.0,-1.875,-19.6875,0.985046,0.171326,0.016907,0.0,0.0,0.02,-0.01,-0.32,3.3,9.22,22
1.880627,-0.33,3.33,9.21,-0.0625,-0.0625,0.1875,2.5625,77.375,-11.75,0.0,-1.875,-19.6875,0.985046,0.171326,0.016907,0.0,0.0,0.01,0.0,-0.32,3.3,9.22,22
1.891625,-0.33,3.3,9.23,-0.0625,-0.0625,0.1875,2.5625,77.375,-11.75,0.0,-1.875,-19.6875,0.985046,0.171326,0.016907,0.0,-0.01,0.0,0.01,-0.32,3.3,9.22,22
1.902623,-0.31,3.29,9.22,-0.1875,0.0625,0.25,2.5625,77.375,-11.75,0.0,-1.875,-19.6875,0.985046,0.171326,0.016907,0.0,0.0,0.01,-0.01,-0.32,3.3,9.22,22
1.913621,-0.33,3.32,9.2,-0.0625,-0.125,0.3125,2.5625,77.375,-11.75,0.0,-1.875,-19.6875,0.985046,0.171326,0.016907,0.0,0.0,0.01,0.0,-0.32,3.3,9.22,22
1.924618,-0.32,3.32,9.22,-0.1875,-0.125,0.25,2.5625,77.375,-11.75,0.0,-1.875,-19.6875,0.985046,0.171326,0.016907,0.0,0.0,0.01,0.0,-0.32,3.3,9.22,22
1.935616,-0.33,3.3,9.24,0.125,-0.25,0.25,2.25,77.375,-11.375,0.0,-1.875,-19.6875,0.985046,0.171326,0.016907,0.0,0.0,0.01,0.0,-0.32,3.3,9.22,22
1.946614,-0.33,3.31,9.18,-0.1875,-0.375,0.3125,2.25,77.375,-11.375,0.0,-1.875,-19.6875,0.985046,0.171326,0.016907,0.0,0.0,0.0,-0.03,-0.32,3.3,9.22,22
1.957612,-0.32,3.3,9.2,-0.25,-0.3125,0.0625,2.25,77.375,-11.375,0.0,-1.875,-19.6875,0.985046,0.171326,0.016907,0.0,0.0,-0.01,0.0,-0.32,3.3,9.22,22
1.96861,-0.32,3.29,9.22,-0.125,-0.1875,0.25,2.25,77.375,-11.375,0.0,-1.875,-19.6875,0.985046,0.171326,0.016907,0.0,0.0,-0.01,0.0,-0.32,3.3,9.22,22
1.979607,-0.32,3.3,9.21,0.0,-0.125,0.1875,2.25,77.375,-16.0625,0.0,-1.875,-19.6875,0.985046,0.171326,0.016907,0.0,0.0,0.0,-0.02,-0.32,3.3,9.22,22
1.990605,-0.33,3.31,9.19,-0.1875,-0.0625,0.25,2.25,77.375,-16.0625,0.0,-1.875,-19.6875,0.985046,0.171326,0.016907,0.0,0.0,0.01,-0.02,-0.32,3.3,9.22,22
2.001603,-0.32,3.32,9.19,-0.1875,-0.4375,0.125,2.25,77.375,-16.0625,0.0,-1.875,-19.6875,0.985046,0.171326,0.016907,0.0,0.0,0.0,0.0,-0.32,3.3,9.22,22
2.012601,-0.32,3.31,9.21,0.0625,-0.1875,0.25,2.25,77.375,-16.0625,0.0,-1.875,-19.6875,0.985046,0.171326,0.016907,0.0,0.0,0.0,-0.02,-0.32,3.3,9.22,22
2.023599,-0.33,3.31,9.2,-0.0625,-0.125,0.125,1.5,77.0625,-12.0625,0.0,-1.875,-19.6875,0.985046,0.171326,0.016907,0.0,0.0,0.01,0.0,-0.32,3.3,9.22,22
2.034597,-0.32,3.32,9.22,-0.0625,-0.125,0.1875,1.5,77.0625,-12.0625,0.0,-1.875,-19.6875,0.985046,0.171326,0.016907,0.0,0.0,0.0,0.0,-0.32,3.3,9.22,22
2.045594,-0.33,3.3,9.22,0.0,-0.3125,0.125,1.5,77.0625,-12.0625,0.0,-1.875,-19.6875,0.985046,0.171326,0.016907,0.0,0.0,0.02,-0.02,-0.32,3.3,9.22,22
2.056592,-0.33,3.33,9.19,-0.0625,-0.3125,0.375,1.5,77.0625,-12.0625,0.0,-1.875,-19.6875,0.985046,0.171326,0.016907,0.0,0.0,0.0,-0.01,-0.32,3.3,9.22,22
2.06759,-0.33,3.31,9.2,-0.1875,-0.375,0.25,1.5,77.0625,-12.0625,0.0,-1.875,-19.6875,0.985046,0.171326,0.016907,0.0,0.0,0.0,0.0,-0.32,3.3,9.22,22
2.078588,-0.32,3.31,9.22,-0.125,-0.5,0.1875,3.75,79.25,-10.1875,0.0,-1.875,-19.6875,0.985046,0.171326,0.016907,0.0,0.0,-0.01,0.0,-0.32,3.3,9.22,22
2.089586,-0.32,3.29,9.22,-0.1875,-0.125,0.125,3.75,79.25,-10.1875,0.0,-1.875,-19.6875,0.985046,0.171326,0.016907,0.0,0.0,0.0,0.01,-0.32,3.3,9.22,22
2.100584,-0.33,3.3,9.23,-0.0625,-0.375,0.25,3.75,79.25,-10.1875,0.0,-1.875,-19.6875,0.985046,0.171326,0.016907,0.0,0.0,-0.01,-0.01,-0.32,3.3,9.22,22
2.111581,-0.32,3.29,9.21,0.0,-0.1875,0.375,3.75,79.25,-10.1875,0.0,-1.875,-19.6875,0.985046,0.171326,0.016907,0.0,0.0,0.0,0.0,-0.32,3.3,9.22,22
2.122579,-0.32,3.31,9.22,0.0,-0.25,0.25,3.75,79.25,-10.1875,0.0,-1.875,-19.6875,0.985046,0.171326,0.016907,0.0,0.0,0.0,0.01,-0.32,3.3,9.22,22
2.133577,-0.32,3.3,9.23,-0.1875,-0.25,0.25,1.875,78.1875,-11.375,0.0,-1.875,-19.6875,0.985046,0.171326,0.016907,0.0,0.0,0.0,0.0,-0.32,3.3,9.22,22
2.144575,-0.32,3.31,9.23,0.0,-0.0625,0.125,1.875,78.1875,-11.375,0.0,-1.875,-19.6875,0.985046,0.171326,0.016907,0.0,0.0,0.0,0.01,-0.32,3.3,9.22,22
2.155573,-0.32,3.28,9.22,-0.3125,-0.5,0.1875,1.875,78.1875,-11.375,0.0,-1.875,-19.6875,0.985046,0.171326,0.016907,0.0,0.0,-0.02,0.0,-0.32,3.3,9.22,22
2.16657,-0.32,3.3,9.2,-0.125,-0.25,0.25,1.875,78.1875,-11.375,0.0,-1.875,-19.6875,0.985046,0.171326,0.016907,0.0,0.0,0.01,0.0,-0.32,3.3,9.22,22
2.177568,-0.32,3.32,9.22,-0.25,-0.1875,0.375,1.875,78.1875,-11.375,0.0,-1.875,-19.6875,0.985046,0.171326,0.016907,0.0,0.0,0.01,0.0,-0.32,3.3,9.22,22
2.188566,-0.33,3.3,9.23,-0.125,-0.3125,0.125,3.75,78.1875,-11.75,0.0,-1.875,-19.6875,0.985046,0.171326,0.016907,0.0,0.0,0.0,0.0,-0.32,3.3,9.22,22
2.199564,-0.32,3.3,9.22,-0.25,-0.0625,0.125,3.75,78.1875,-11.75,0.0,-1.875,-19.6875,0.985046,0.171326,0.016907,0.0,0.0,0.0,0.01,-0.32,3.3,9.22,22
2.210562,-0.32,3.31,9.24,-0.3125,-0.25,0.25,3.75,78.1875,-11.75,0.0,-1.875,-19.6875,0.985046,0.171326,0.016907,0.0,0.0,0.0,-0.01,-0.32,3.3,9.22,22
2.22156,-0.32,3.3,9.2,-0.125,-0.375,0.125,3.75,78.1875,-11.75,0.0,-1.875,-19.6875,0.985046,0.171326,0.016907,0.0,0.0,-0.01,0.0,-0.32,3.3,9.22,22
2.232557,-0.32,3.29,9.22,0.0625,-0.4375,0.25,1.5,77.375,-11.375,0.0,-1.875,-19.6875,0.985046,0.171326,0.016907,0.0,0.0,0.01,-0.01,-0.32,3.3,9.22,22
2.243555,-0.32,3.32,9.22,-0.125,-0.25,0.0625,1.5,77.375,-11.375,0.0,-1.875,-19.6875,0.985046,0.171326,0.016907,0.0,0.0,0.01,0.0,-0.32,3.3,9.22,22
2.254553,-0.32,3.3,9.23,-0.1875,-0.1875,0.25,1.5,77.375,-11.375,0.0,-1.875,-19.6875,0.985046,0.171326,0.016907,0.0,0.0,-0.01,0.0,-0.32,3.3,9.22,22
2.265551,-0.33,3.29,9.22,0.0625,-0.3125,0.25,1.5,77.375,-11.375,0.0,-1.875,-19.6875,0.985046,0.171326,0.016907,0.0,0.0,0.01,0.0,-0.32,3.3,9.22,22
2.276549,-0.33,3.32,9.23,0.0625,-0.3125,0.1875,1.5,77.375,-11.375,0.0,-1.875,-19.6875,0.985046,0.171326,0.016907,0.0,0.0,0.01,0.0,-0.32,3.3,9.22,22
2.287546,-0.31,3.31,9.22,0.0,-0.5625,0.25,5.25,76.25,-16.0625,0.0,-1.875,-19.6875,0.985046,0.171326,0.016907,0.0,0.0,0.01,0.0,-0.32,3.3,9.22,22
2.298544,-0.32,3.32,9.22,0.0625,-0.1875,0.25,5.25,76.25,-16.0625,0.0,-1.875,-19.6875,0.985046,0.171326,0.016907,0.0,0.0,0.01,-0.03,-0.32,3.3,9.22,22
2.309542,-0.33,3.32,9.19,0.125,-0.1875,0.1875,5.25,76.25,-16.0625,0.0,-1.875,-19.6875,0.985046,0.171326,0.016907,0.0,0.0,0.0,-0.01,-0.32,3.3,9.22,22
2.32054,-0.33,3.32,9.2,-0.25,-0.375,0.1875,5.25,76.25,-16.0625,0.0,-1.875,-19.6875,0.985046,0.171326,0.016907,0.0,0.0,0.01,-0.01,-0.32,3.3,9.22,22
2.331538,-0.31,3.3,9.19,-0.1875,-0.5,0.1875,5.25,77.0625,-15.6875,0.0,-1.875,-19.6875,0.985046,0.171326,0.016907,0.0,0.0,0.0,0.0,-0.32,3.3,9.22,22
2.342536,-0.32,3.31,9.22,-0.3125,-0.5,0.1875,5.25,77.0625,-15.6875,0.0,-1.875,-19.6875,0.985046,0.171326,0.016907,0.0,0.0,0.0,-0.02,-0.32,3.3,9.22,22
2.353533,-0.33,3.31,9.2,-0.0625,-0.1875,0.0625,5.25,77.0625,-15.6875,0.0,-1.875,-19.6875,0.985046,0.171326,0.016907,0.0,0.0,0.0,-0.01,-0.32,3.3,9.22,22
2.364531,-0.33,3.3,9.21,-0.0625,-0.1875,0.375,5.25,77.0625,-15.6875,0.0,-1.875,-19.6875,0.985046,0.171326,0.016907,0.0,0.0,0.0,0.02,-0.32,3.3,9.22,22
2.375529,-0.32,3.31,9.24,-0.3125,-0.125,0.125,5.25,77.0625,-15.6875,0.0,-1.875,-19.6875,0.985046,0.171326,0.016907,0.0,0.0,0.0,0.02,-0.32,3.3,9.22,22
2.386527,-0.32,3.31,9.22,0.0,-0.3125,0.1875,5.25,76.6875,-15.6875,0.0,-1.875,-19.6875,0.985046,0.171326,0.016907,0.0,-0.01,-0.01,-0.01,-0.32,3.3,9.22,22
2.397525,-0.33,3.29,9.2,-0.0625,-0.0625,0.3125,5.25,76.6875,-15.6875,0.0,-1.875,-19.6875,0.985046,0.171326,0.016907,0.0,0.0,0.0,0.0,-0.32,3.3,9.22,22
2.408522,-0.32,3.31,9.22,0.0,0.0625,0.125,5.25,76.6875,-15.6875,0.0,-1.875,-19.6875,0.985046,0.171326,0.016907,0.0,0.0,0.0,0.0,-0.32,3.3,9.22,22
2.41952,-0.32,3.3,9.22,-0.125,-0.25,0.125,5.25,76.6875,-15.6875,0.0,-1.875,-19.6875,0.985046,0.171326,0.016907,0.0,0.0,0.0,0.0,-0.32,3.3,9.22,22
2.430518,-0.33,3.3,9.22,-0.125,0.0,0.125,3.75,77.375,-15.25,0.0,-1.875,-19.6875,0.985046,0.171326,0.016907,0.0,0.0,0.02,0.01,-0.32,3.3,9.22,22
2.441516,-0.32,3.33,9.24,-0.25,-0.0625,0.125,3.75,77.375,-15.25,0.0,-1.875,-19.6875,0.985046,0.171326,0.016907,0.0,0.0,0.0,0.0,-0.32,3.3,9.22,22
2.452514,-0.32,3.3,9.21,-0.25,-0.1875,0.1875,3.75,77.375,-15.25,0.0,-1.875,-19.6875,0.985046,0.171326,0.016907,0.0,0.0,0.02,-0.01,-0.32,3.3,9.22,22
2.463512,-0.33,3.31,9.21,-0.25,-0.5,0.3125,3.75,77.375,-15.25,0.0,-1.875,-19.6875,0.985046,0.171326,0.016907,0.0,0.0,0.0,-0.01,-0.32,3.3,9.22,22
2.474509,-0.32,3.34,9.19,-0.25,-0.4375,0.125,3.75,77.375,-15.25,0.0,-1.875,-19.6875,0.985046,0.171326,0.016907,0.0,0.0,0.03,-0.03,-0.32,3.3,9.22,22
2.485507,-0.32,3.31,9.21,0.0,-0.25,0.1875,2.5625,78.875,-10.5625,0.0,-1.875,-19.6875,0.985046,0.171326,0.016907,0.0,0.0,0.0,0.02,-0.32,3.3,9.22,22
2.496505,-0.32,3.31,9.24,-0.0625,-0.375,0.3125,2.5625,78.875,-10.5625,0.0,-1.875,-19.6875,0.985046,0.171326,0.016907,0.0,0.0,0.0,-0.02,-0.32,3.3,9.22,22
2.507503,-0.32,3.31,9.19,0.0,-0.5,0.1875,2.5625,78.875,-10.5625,0.0,-1.875,-19.6875,0.985046,0.171326,0.016907,0.0,0.0,0.01,-0.01,-0.32,3.3,9.22,22
2.518501,-0.32,3.32,9.21,0.0,-0.25,0.1875,2.5625,78.875,-10.5625,0.0,-1.875,-19.6875,0.985046,0.171326,0.016907,0.0,0.0,0.0,-0.02,-0.32,3.3,9.22,22
2.529498,-0.33,3.31,9.2,-0.3125,-0.5,0.3125,1.0625,78.1875,-10.875,0.0,-1.875,-19.6875,0.985046,0.171326,0.016907,0.0,0.0,0.0,0.01,-0.32,3.3,9.22,22
2.540496,-0.33,3.31,9.23,-0.125,-0.4375,0.125,1.0625,78.1875,-10.875,0.0,-1.875,-19.6875,0.985046,0.171326,0.016907,0.0,0.0,0.0,0.0,-0.32,3.3,9.22,22
2.551494,-0.33,3.29,9.21,-0.1875,-0.3125,0.125,1.0625,78.1875,-10.875,0.0,-1.875,-19.6875,0.985046,0.171326,0.016907,0.0,0.01,0.0,-0.01,-0.32,3.3,9.22,22
2.562492,-0.31,3.31,9.21,-0.3125,-0.3125,0.1875,1.0625,78.1875,-10.875,0.0,-1.875,-19.6875,0.985046,0.171326,0.016907,0.0,0.0,0.02,0.0,-0.32,3.3,9.22,22
2.57349,-0.33,3.33,9.22,-0.0625,-0.125,0.1875,6.375,77.0625,-16.5,0.0,-1.875,-19.6875,0.985046,0.171326,0.016907,0.0,0.0,0.0,0.01,-0.32,3.3,9.22,22
2.584488,-0.33,3.3,9.23,-0.0625,-0.125,0.125,6.375,77.0625,-16.5,0.0,-1.875,-19.6875,0.985046,0.171326,0.016907,0.0,0.0,0.0,-0.01,-0.32,3.3,9.22,22
2.595485,-0.33,3.3,9.2,0.0,-0.1875,0.25,6.375,77.0625,-16.5,0.0,-1.875,-19.6875,0.985046,0.171326,0.016907,0.0,0.0,0.01,-0.03,-0.32,3.3,9.22,22
2.606483,-0.32,3.32,9.19,0.0625,-0.1875,0.25,6.375,77.0625,-16.5,0.0,-1.875,-19.6875,0.985046,0.171326,0.016907,0.0,0.0,0.0,-0.02,-0.32,3.3,9.22,22
2.617481,-0.32,3.3,9.2,-0.125,-0.25,0.1875,6.375,77.0625,-16.5,0.0,-1.875,-19.6875,0.985046,0.171326,0.016907,0.0,0.0,0.01,0.0,-0.32,3.3,9.22,22
2.628479,-0.33,3.32,9.22,0.0,-0.3125,0.3125,5.5625,77.75,-16.5,0.0,-1.875,-19.6875,0.985046,0.171326,0.016907,0.0,0.0,0.0,-0.01,-0.32,3.3,9.22,22
2.639477,-0.33,3.29,9.23,0.0,-0.125,0.375,5.5625,77.75,-16.5,0.0,-1.875,-19.6875,0.985046,0.171326,0.016907,0.0,0.0,-0.01,0.0,-0.32,3.3,9.22,22
2.650474,-0.33,3.3,9.22,0.0625,-0.375,0.25,5.5625,77.75,-16.5,0.0,-1.875,-19.6875,0.985046,0.171326,0.016907,0.0,0.0,0.0,-0.01,-0.32,3.3,9.22,22
2.661472,-0.32,3.31,9.2,-0.1875,0.0,0.125,5.5625,77.75,-16.5,0.0,-1.875,-19.6875,0.985046,0.171326,0.016907,0.0,0.0,0.0,-0.02,-0.32,3.3,9.22,22
2.67247,-0.32,3.3,9.2,-0.0625,-0.25,0.1875,5.5625,77.75,-16.5,0.0,-1.875,-19.6875,0.985046,0.171326,0.016907,0.0,0.0,0.0,-0.02,-0.32,3.3,9.22,22
2.683468,-0.33,3.32,9.21,-0.0625,-0.375,0.3125,3.375,78.875,-10.1875,0.0,-1.875,-19.6875,0.985046,0.171326,0.016907,0.0,0.0,0.0,-0.01,-0.32,3.3,9.22,22
2.694466,-0.32,3.31,9.21,0.0625,-0.25,0.25,3.375,78.875,-10.1875,0.0,-1.875,-19.6875,0.985046,0.171326,0.016907,0.0,0.0,0.0,-0.01,-0.32,3.3,9.22,22
2.705464,-0.33,3.3,9.21,-0.0625,-0.375,0.25,3.375,78.875,-10.1875,0.0,-1.875,-19.6875,0.985046,0.171326,0.016907,0.0,0.0,0.0,0.0,-0.32,3.3,9.22,22
2.716461,-0.32,3.3,9.22,-0.0625,-0.25,0.1875,3.375,78.875,-10.1875,0.0,-1.875,-19.6875,0.985046,0.171326,0.016907,0.0,0.0,0.0,0.0,-0.32,3.3,9.22,22
2.727459,-0.32,3.31,9.22,-0.1875,-0.3125,0.25,2.25,77.75,-11.75,0.0,-1.875,-19.6875,0.985046,0.171326,0.016907,0.0,0.0,0.0,0.03,-0.32,3.3,9.22,22
2.738457,-0.33,3.29,9.21,-0.1875,-0.25,0.1875,2.25,77.75,-11.75,0.0,-1.875,-19.6875,0.985046,0.171326,0.016907,0.0,0.0,-0.01,-0.01,-0.32,3.3,9.22,22
2.749455,-0.33,3.3,9.2,0.0,-0.25,0.25,2.25,77.75,-11.75,0.0,-1.875,-19.6875,0.985046,0.171326,0.016907,0.0,0.01,0.0,0.0,-0.32,3.3,9.22,22
2.760453,-0.31,3.3,9.22,0.0,-0.3125,0.3125,2.25,77.75,-11.75,0.0,-1.875,-19.6875,0.985046,0.171326,0.016907,0.0,0.0,-0.01,0.0,-0.32,3.3,9.22,22
2.77145,-0.32,3.29,9.21,-0.3125,-0.1875,0.1875,2.25,77.75,-11.75,0.0,-1.875,-19.6875,0.985046,0.171326,0.016907,0.0,0.0,-0.01,0.0,-0.32,3.3,9.22,22
2.782448,-0.32,3.3,9.21,-0.125,-0.25,0.25,1.5,77.0625,-10.875,0.0,-1.875,-19.6875,0.985046,0.171326,0.016907,0.0,0.0,0.02,-0.02,-0.32,3.3,9.22,22
2.793446,-0.33,3.33,9.2,-0.0625,-0.125,0.125,1.5,77.0625,-10.875,0.0,-1.875,-19.6875,0.985046,0.171326,0.016907,0.0,0.0,0.0,-0.01,-0.32,3.3,9.22,22
2.804444,-0.33,3.31,9.2,-0.0625,-0.3125,0.25,1.5,77.0625,-10.875,0.0,-1.875,-19.6875,0.985046,0.171326,0.016907,0.0,0.0,0.0,-0.01,-0.32,3.3,9.22,22
2.815442,-0.32,3.31,9.2,0.0,-0.3125,0.1875,1.5,77.0625,-10.875,0.0,-1.875,-19.6875,0.985046,0.171326,0.016907,0.0,0.0,0.02,0.0,-0.32,3.3,9.22,22
2.82644,-0.33,3.33,9.23,-0.1875,-0.375,0.125,2.25,78.1875,-10.5625,0.0,-1.875,-19.6875,0.985046,0.171326,0.016907,0.0,0.0,0.0,0.0,-0.32,3.3,9.22,22
2.837437,-0.32,3.29,9.22,-0.125,-0.3125,0.1875,2.25,78.1875,-10.5625,0.0,-1.875,-19.6875,0.985046,0.171326,0.016907,0.0,0.0,-0.01,0.0,-0.32,3.3,9.22,22
2.848435,-0.31,3.31,9.18,-0.125,-0.4375,0.3125,2.25,78.1875,-10.5625,0.0,-1.875,-19.6875,0.985046,0.171326,0.016907,0.0,0.0,0.0,0.0,-0.32,3.3,9.22,22
2.859433,-0.33,3.3,9.22,-0.5,-0.3125,0.125,2.25,78.1875,-10.5625,0.0,-1.875,-19.6875,0.985046,0.171326,0.016907,0.0,0.0,0.0,0.0,-0.32,3.3,9.22,22
2.870431,-0.32,3.31,9.22,-0.3125,-0.25,0.1875,2.25,78.1875,-10.5625,0.0,-1.875,-19.6875,0.985046,0.171326,0.016907,0.0,0.0,0.0,0.0,-0.32,3.3,9.22,22
2.881429,-0.31,3.3,9.22,-0.3125,-0.5,0.1875,2.25,77.75,-11.375,0.0,-1.875,-19.6875,0.985046,0.171326,0.016907,0.0,-0.01,0.01,-0.02,-0.32,3.3,9.22,22
2.892426,-0.33,3.32,9.2,-0.1875,-0.0625,0.125,2.25,77.75,-11.375,0.0,-1.875,-19.6875,0.985046,0.171326,0.016907,0.0,0.0,0.0,0.0,-0.32,3.3,9.22,22
2.903424,-0.32,3.31,9.22,-0.25,-0.375,0.3125,2.25,77.75,-11.375,0.0,-1.875,-19.6875,0.985046,0.171326,0.016907,0.0,0.0,0.0,0.0,-0.32,3.3,9.22,22
2.914422,-0.33,3.31,9.22,-0.0625,-0.25,0.25,2.25,77.75,-11.375,0.0,-1.875,-19.6875,0.985046,0.171326,0.016907,0.0,0.0,0.0,0.0,-0.32,3.3,9.22,22
2.92542,-0.33,3.31,9.22,-0.1875,-0.375,0.1875,1.5,78.1875,-11.375,0.0,-1.875,-19.6875,0.985046,0.171326,0.016907,0.0,0.0,0.0,0.01,-0.32,3.3,9.22,22
2.936418,-0.32,3.3,9.23,0.0,-0.25,0.25,1.5,78.1875,-11.375,0.0,-1.875,-19.6875,0.985046,0.171326,0.016907,0.0,0.0,0.0,0.0,-0.32,3.3,9.22,22
2.947416,-0.32,3.3,9.22,0.0,-0.375,0.1875,1.5,78.1875,-11.375,0.0,-1.875,-19.6875,0.985046,0.171326,0.016907,0.0,0.01,-0.02,-0.04,-0.32,3.3,9.22,23
2.958413,-0.33,3.31,9.23,-0.125,-0.3125,0.125,1.5,78.1875,-11.375,0.0,-1.875,-19.6875,0.985046,0.171326,0.016907,0.0,0.0,0.0,0.01,-0.32,3.3,9.22,23
2.969411,-0.33,3.29,9.25,-0.25,-0.3125,0.125,1.5,78.1875,-11.375,0.0,-1.875,-19.6875,0.985046,0.171326,0.016907,0.0,0.0,-0.01,0.02,-0.32,3.3,9.22,23
2.980409,-0.32,3.3,9.18,-0.1875,-0.5625,0.25,2.25,78.5625,-10.5625,0.0,-1.875,-19.6875,0.985046,0.171326,0.016907,0.0,0.0,0.0,0.03,-0.32,3.3,9.22,23
2.991407,-0.32,3.3,9.26,0.125,0.0,0.0625,2.25,78.5625,-10.5625,0.0,-1.875,-19.6875,0.985046,0.171326,0.016907,0.0,0.0,0.0,0.0,-0.32,3.3,9.22,23
3.002405,-0.33,3.31,9.22,0.0,0.0,0.125,2.25,78.5625,-10.5625,0.0,-1.875,-19.6875,0.985046,0.171326,0.016907,0.0,0.01,0.0,-0.01,-0.32,3.3,9.22,23
3.013403,-0.31,3.3,9.21,0.0625,-0.125,0.25,2.25,78.5625,-10.5625,0.0,-1.875,-19.6875,0.985046,0.171326,0.016907,0.0,0.0,0.01,0.01,-0.32,3.3,9.22,23
3.0244,-0.32,3.32,9.24,-0.1875,-0.375,0.3125,2.25,78.5625,-10.5625,0.0,-1.875,-19.6875,0.985046,0.171326,0.016907,0.0,0.0,0.01,0.01,-0.32,3.3,9.22,23
3.035398,-0.33,3.3,9.22,0.1875,-0.125,0.25,2.25,79.25,-11.0,0.0,-1.875,-19.6875,0.985046,0.171326,0.016907,0.0,0.0,0.0,-0.01,-0.32,3.3,9.22,23
3.046396,-0.33,3.31,9.21,0.0,-0.0625,0.1875,2.25,79.25,-11.0,0.0,-1.875,-19.6875,0.985046,0.171326,0.016907,0.0,0.0,-0.01,0.0,-0.32,3.3,9.22,23
3.057394,-0.33,3.32,9.24,0.0625,0.0,0.25,2.25,79.25,-11.0,0.0,-1.875,-19.6875,0.985046,0.171326,0.016907,0.0,-0.01,0.01,0.01,-0.32,3.3,9.22,23
3.068392,-0.33,3.3,9.21,0.0,-0.1875,0.1875,2.25,79.25,-11.0,0.0,-1.875,-19.6875,0.985046,0.171326,0.016907,0.0,0.0,0.0,-0.01,-0.32,3.3,9.22,23
3.079389,-0.31,3.3,9.23,0.0625,0.0,0.25,1.5,77.0625,-11.375,0.0,-1.875,-19.6875,0.985046,0.171326,0.016907,0.0,0.0,-0.02,0.0,-0.32,3.3,9.22,23
3.090387,-0.33,3.28,9.21,-0.0625,-0.25,0.25,1.5,77.0625,-11.375,0.0,-1.875,-19.6875,0.985046,0.171326,0.016907,0.0,0.0,0.0,-0.02,-0.32,3.3,9.22,23
3.101385,-0.33,3.31,9.19,-0.0625,-0.1875,0.1875,1.5,77.0625,-11.375,0.0,-1.875,-19.6875,0.985046,0.171326,0.016907,0.0,0.0,0.0,0.0,-0.32,3.3,9.22,23
3.112383,-0.33,3.3,9.22,-0.1875,-0.375,0.25,1.5,77.0625,-11.375,0.0,-1.875,-19.6875,0.985046,0.171326,0.016907,0.0,0.0,0.01,0.0,-0.32,3.3,9.22,23
3.123381,-0.33,3.32,9.22,-0.125,-0.25,0.0625,1.5,78.875,-12.875,0.0,-1.875,-19.6875,0.985046,0.171326,0.016907,0.0,-0.01,0.0,0.0,-0.32,3.3,9.22,23
3.134379,-0.33,3.31,9.22,-0.0625,-0.125,0.1875,1.5,78.875,-12.875,0.0,-1.875,-19.6875,0.985046,0.171326,0.016907,0.0,0.0,0.0,0.0,-0.32,3.3,9.22,23
3.145376,-0.33,3.3,9.21,-0.1875,-0.1875,0.125,1.5,78.875,-12.875,0.0,-1.875,-19.6875,0.985046,0.171326,0.016907,0.0,-0.01,0.0,0.0,-0.32,3.3,9.22,23
3.156374,-0.33,3.3,9.23,-0.125,-0.3125,0.375,1.5,78.875,-12.875,0.0,-1.875,-19.6875,0.985046,0.171326,0.016907,0.0,0.0,0.0,-0.01,-0.32,3.3,9.22,23
3.167372,-0.33,3.31,9.21,0.0,-0.375,0.3125,1.5,78.875,-12.875,0.0,-1.875,-19.6875,0.985046,0.171326,0.016907,0.0,0.0,0.0,-0.01,-0.32,3.3,9.22,23
3.17837,-0.33,3.31,9.22,-0.375,-0.5,0.25,2.5625,77.375,-11.375,0.0,-1.875,-19.6875,0.985046,0.171326,0.016907,0.0,0.0,0.01,-0.02,-0.32,3.3,9.22,23
3.189368,-0.32,3.32,9.2,-0.125,0.0625,0.3125,2.5625,77.375,-11.375,0.0,-1.875,-19.6875,0.985046,0.171326,0.016907,0.0,0.0,0.03,-0.02,-0.32,3.3,9.22,23
3.200365,-0.33,3.34,9.19,-0.125,-0.3125,0.125,2.5625,77.375,-11.375,0.0,-1.875,-19.6875,0.985046,0.171326,0.016907,0.0,0.0,0.01,0.0,-0.32,3.3,9.22,23
3.211363,-0.33,3.32,9.23,-0.0625,-0.3125,0.1875,2.5625,77.375,-11.375,0.0,-1.875,-19.6875,0.985046,0.171326,0.016907,0.0,0.0,0.0,0.0,-0.32,3.3,9.22,23
3.222361,-0.33,3.31,9.22,0.0,0.0,0.3125,6.0,76.6875,-16.0625,0.0,-1.875,-19.6875,0.985046,0.171326,0.016907,0.0,0.0,-0.02,0.0,-0.32,3.3,9.22,23
3.233359,-0.32,3.28,9.22,-0.3125,-0.125,0.3125,6.0,76.6875,-16.0625,0.0,-1.875,-19.6875,0.985046,0.171326,0.016907,0.0,0.0,0.01,0.0,-0.32,3.3,9.22,23
3.244357,-0.33,3.32,9.21,0.0,-0.125,0.1875,6.0,76.6875,-16.0625,0.0,-1.875,-19.6875,0.985046,0.171326,0.016907,0.0,0.0,0.01,0.0,-0.32,3.3,9.22,23
3.255355,-0.32,3.32,9.21,-0.0625,-0.125,0.125,6.0,76.6875,-16.0625,0.0,-1.875,-19.6875,0.985046,0.171326,0.016907,0.0,0.0,0.0,-0.02,-0.32,3.3,9.22,23
3.266352,-0.33,3.31,9.2,-0.125,-0.0625,0.1875,6.0,76.6875,-16.0625,0.0,-1.875,-19.6875,0.985046,0.171326,0.016907,0.0,0.0,0.0,0.0,-0.32,3.3,9.22,23
3.27735,-0.33,3.31,9.22,0.0,-0.3125,0.1875,1.875,77.75,-11.0,0.0,-1.875,-19.6875,0.985046,0.171326,0.016907,0.0,0.01,0.0,0.0,-0.32,3.3,9.22,23
3.288348,-0.31,3.31,9.22,-0.125,-0.25,0.3125,1.875,77.75,-11.0,0.0,-1.875,-19.6875,0.985046,0.171326,0.016907,0.0,0.01,-0.02,0.0,-0.32,3.3,9.22,23
3.299346,-0.31,3.28,9.23,-0.125,0.0625,0.3125,1.875,77.75,-11.0,0.0,-1.875,-19.6875,0.985046,0.171326,0.016907,0.0,0.0,-0.01,0.0,-0.32,3.3,9.22,23
3.310344,-0.32,3.29,9.21,-0.25,0.0,0.125,1.875,77.75,-11.0,0.0,-1.875,-19.6875,0.985046,0.171326,0.016907,0.0,0.0,0.0,0.0,-0.32,3.3,9.22,23
3.321341,-0.33,3.3,9.22,-0.25,-0.1875,0.3125,1.875,77.75,-11.0,0.0,-1.875,-19.6875,0.985046,0.171326,0.016907,0.0,0.0,0.01,-0.01,-0.32,3.3,9.22,23
3.332339,-0.32,3.32,9.21,-0.0625,-0.25,0.25,0.375,78.1875,-10.1875,0.0,-1.875,-19.6875,0.985046,0.171326,0.016907,0.0,0.0,0.0,0.02,-0.32,3.3,9.22,23
3.343337,-0.33,3.29,9.22,-0.125,-0.1875,0.1875,0.375,78.1875,-10.1875,0.0,-1.875,-19.6875,0.985046,0.171326,0.016907,0.0,0.0,-0.01,0.0,-0.32,3.3,9.22,23
3.354335,-0.32,3.32,9.21,-0.1875,-0.4375,0.3125,0.375,78.1875,-10.1875,0.0,-1.875,-19.6875,0.985046,0.171326,0.016907,0.0,0.0,0.01,-0.02,-0.32,3.3,9.22,23
3.365333,-0.33,3.32,9.19,-0.0625,-0.1875,0.25,0.375,78.1875,-10.1875,0.0,-1.875,-19.6875,0.985046,0.171326,0.016907,0.0,0.0,0.0,0.0,-0.32,3.3,9.22,23
3.376331,-0.33,3.3,9.22,-0.125,-0.25,0.3125,2.25,78.875,-11.0,0.0,-1.875,-19.6875,0.985046,0.171326,0.016907,0.0,0.01,-0.01,0.0,-0.32,3.3,9.22,23
3.387328,-0.31,3.29,9.22,-0.1875,-0.4375,0.25,2.25,78.875,-11.0,0.0,-1.875,-19.6875,0.985046,0.171326,0.016907,0.0,0.0,0.0,0.0,-0.32,3.3,9.22,23
3.398326,-0.32,3.3,9.22,0.0,-0.3125,0.3125,2.25,78.875,-11.0,0.0,-1.875,-19.6875,0.985046,0.171326,0.016907,0.0,0.0,0.02,0.0,-0.32,3.3,9.22,23
3.409324,-0.32,3.33,9.21,-0.125,-0.4375,0.3125,2.25,78.875,-11.0,0.0,-1.875,-19.6875,0.985046,0.171326,0.016907,0.0,0.0,0.0,-0.01,-0.32,3.3,9.22,23
3.420322,-0.33,3.31,9.2,-0.3125,-0.375,0.125,2.25,78.875,-11.0,0.0,-1.875,-19.6875,0.985046,0.171326,0.016907,0.0,0.0,0.0,0.0,-0.32,3.3,9.22,23
3.43132,-0.32,3.3,9.23,-0.1875,-0.1875,0.1875,3.0,77.375,-11.375,0.0,-1.875,-19.6875,0.985046,0.171326,0.016907,0.0,0.0,0.0,0.0,-0.32,3.3,9.22,23
3.442317,-0.33,3.32,9.22,0.0625,-0.3125,0.25,3.0,77.375,-11.375,0.0,-1.875,-19.6875,0.985046,0.171326,0.016907,0.0,-0.01,0.01,0.0,-0.32,3.3,9.22,23
3.453315,-0.32,3.31,9.2,0.0,-0.1875,0.3125,3.0,77.375,-11.375,0.0,-1.875,-19.6875,0.985046,0.171326,0.016907,0.0,-0.01,-0.01,0.0,-0.32,3.3,9.22,23
3.464313,-0.34,3.29,9.22,-0.0625,-0.375,0.3125,3.0,77.375,-11.375,0.0,-1.875,-19.6875,0.985046,0.171326,0.016907,0.0,0.0,-0.01,0.0,-0.32,3.3,9.22,23
3.475311,-0.33,3.29,9.22,0.0625,-0.1875,0.25,3.0,77.375,-11.375,0.0,-1.875,-19.6875,0.985046,0.171326,0.016907,0.0,0.0,-0.01,0.0,-0.32,3.3,9.22,23
3.486309,-0.31,3.34,9.22,-0.125,-0.25,0.375,5.25,76.6875,-15.6875,0.0,-1.875,-19.6875,0.985046,0.171326,0.016907,0.0,0.0,-0.02,0.0,-0.32,3.3,9.22,23
3.497307,-0.32,3.28,9.22,0.0625,-0.1875,0.3125,5.25,76.6875,-15.6875,0.0,-1.875,-19.6875,0.985046,0.171326,0.016907,0.0,0.0,0.0,-0.01,-0.32,3.3,9.22,23
3.508304,-0.33,3.31,9.21,-0.1875,-0.0625,0.1875,5.25,76.6875,-15.6875,0.0,-1.875,-19.6875,0.985046,0.171326,0.016907,0.0,-0.01,0.01,0.0,-0.32,3.3,9.22,23
3.519302,-0.33,3.32,9.22,-0.3125,-0.25,0.125,5.25,76.6875,-15.6875,0.0,-1.875,-19.6875,0.985046,0.171326,0.016907,0.0,0.0,-0.01,0.0,-0.32,3.3,9.22,23
3.5303,-0.32,3.29,9.21,-0.25,-0.3125,0.25,4.875,77.75,-14.0625,0.0,-1.875,-19.6875,0.985046,0.171326,0.016907,0.0,0.0,0.01,0.01,-0.32,3.3,9.22,23
3.541298,-0.32,3.3,9.23,0.125,-0.25,0.1875,4.875,77.75,-14.0625,0.0,-1.875,-19.6875,0.985046,0.171326,0.016907,0.0,0.0,0.0,0.01,-0.32,3.3,9.22,23
3.552296,-0.33,3.31,9.2,-0.0625,-0.4375,0.1875,4.875,77.75,-14.0625,0.0,-1.875,-19.6875,0.985046,0.171326,0.016907,0.0,0.0,0.0,0.0,-0.32,3.3,9.22,23
3.563293,-0.32,3.3,9.22,0.0625,-0.4375,0.1875,4.875,77.75,-14.0625,0.0,-1.875,-19.6875,0.985046,0.171326,0.016907,0.0,0.0,0.0,0.01,-0.32,3.3,9.22,23
3.574291,-0.33,3.31,9.23,-0.0625,-0.625,0.25,4.875,77.75,-14.0625,0.0,-1.875,-19.6875,0.985046,0.171326,0.016907,0.0,0.0,0.0,0.01,-0.32,3.3,9.22,23
3.585289,-0.33,3.3,9.22,-0.125,-0.4375,0.1875,5.5625,77.375,-14.875,0.0,-1.875,-19.6875,0.985046,0.171326,0.016907,0.0,0.0,0.0,0.01,-0.32,3.3,9.22,23
3.596287,-0.32,3.3,9.23,-0.0625,0.0,0.25,5.5625,77.375,-14.875,0.0,-1.875,-19.6875,0.985046,0.171326,0.016907,0.0,0.0,0.0,0.0,-0.32,3.3,9.22,23
3.607285,-0.33,3.31,9.22,-0.125,-0.5625,0.25,5.5625,77.375,-14.875,0.0,-1.875,-19.6875,0.985046,0.171326,0.016907,0.0,0.0,0.0,0.0,-0.32,3.3,9.22,23
3.618283,-0.32,3.31,9.22,-0.25,-0.3125,0.25,5.5625,77.375,-14.875,0.0,-1.875,-19.6875,0.985046,0.171326,0.016907,0.0,0.0,0.0,-0.02,-0.32,3.3,9.22,23
3.62928,-0.33,3.31,9.2,-0.1875,-0.1875,0.125,5.25,76.6875,-15.6875,0.0,-1.875,-19.6875,0.985046,0.171326,0.016907,0.0,0.0,0.0,0.0,-0.32,3.3,9.22,23
3.640278,-0.32,3.29,9.22,0.0,-0.125,0.0625,5.25,76.6875,-15.6875,0.0,-1.875,-19.6875,0.985046,0.171326,0.016907,0.0,0.0,-0.01,0.0,-0.32,3.3,9.22,23
3.651276,-0.32,3.31,9.23,0.0625,-0.1875,0.25,5.25,76.6875,-15.6875,0.0,-1.875,-19.6875,0.985046,0.171326,0.016907,0.0,0.01,0.0,-0.01,-0.32,3.3,9.22,23
3.662274,-0.31,3.3,9.21,-0.125,-0.25,0.3125,5.25,76.6875,-15.6875,0.0,-1.875,-19.6875,0.985046,0.171326,0.016907,0.0,0.0,-0.01,-0.01,-0.32,3.3,9.22,23
3.673272,-0.32,3.29,9.21,-0.125,-0.25,0.1875,5.25,76.6875,-15.6875,0.0,-1.875,-19.6875,0.985046,0.171326,0.016907,0.0,0.0,-0.01,-0.01,-0.32,3.3,9.22,23
3.684269,-0.33,3.31,9.24,-0.0625,-0.3125,0.125,5.25,76.6875,-15.25,0.0,-1.875,-19.6875,0.985046,0.171326,0.016907,0.0,0.0,0.0,0.0,-0.32,3.3,9.22,23
3.695267,-0.33,3.3,9.23,-0.0625,-0.4375,0.25,5.25,76.6875,-15.25,0.0,-1.875,-19.6875,0.985046,0.171326,0.016907,0.0,0.0,0.0,0.0,-0.32,3.3,9.22,23
3.706265,-0.32,3.3,9.22,-0.125,-0.4375,0.1875,5.25,76.6875,-15.25,0.0,-1.875,-19.6875,0.985046,0.171326,0.016907,0.0,0.0,0.0,0.0,-0.32,3.3,9.22,23
3.717263,-0.32,3.31,9.22,0.0,-0.25,0.1875,5.25,76.6875,-15.25,0.0,-1.875,-19.6875,0.985046,0.171326,0.016907,0.0,0.0,0.01,0.0,-0.32,3.3,9.22,23
3.728261,-0.32,3.32,9.23,-0.1875,-0.3125,0.25,1.875,79.25,-11.375,0.0,-1.875,-19.6875,0.985046,0.171326,0.016907,0.0,0.0,-0.02,0.0,-0.32,3.3,9.22,23
3.739259,-0.32,3.28,9.22,0.0,-0.375,0.3125,1.875,79.25,-11.375,0.0,-1.875,-19.6875,0.985046,0.171326,0.016907,0.0,0.0,0.0,0.0,-0.32,3.3,9.22,23
3.750256,-0.33,3.31,9.23,0.0,-0.3125,0.25,1.875,79.25,-11.375,0.0,-1.875,-19.6875,0.985046,0.171326,0.016907,0.0,0.0,0.0,0.0,-0.32,3.3,9.22,23
3.761254,-0.32,3.3,9.22,0.0,-0.0625,0.125,1.875,79.25,-11.375,0.0,-1.875,-19.6875,0.985046,0.171326,0.016907,0.0,0.0,-0.01,0.0,-0.32,3.3,9.22,23
3.772252,-0.33,3.31,9.2,-0.25,-0.375,0.25,1.875,79.25,-11.375,0.0,-1.875,-19.6875,0.985046,0.171326,0.016907,0.0,0.0,0.0,-0.01,-0.32,3.3,9.22,23
3.78325,-0.33,3.31,9.2,-0.3125,-0.25,0.3125,2.5625,77.75,-11.75,0.0,-1.875,-19.6875,0.985046,0.171326,0.016907,0.0,0.0,0.0,-0.01,-0.32,3.3,9.22,23
3.794248,-0.32,3.33,9.25,-0.1875,-0.375,0.25,2.5625,77.75,-11.75,0.0,-1.875,-19.6875,0.985046,0.171326,0.016907,0.0,0.0,0.0,-0.02,-0.32,3.3,9.22,23
3.805246,-0.33,3.31,9.2,-0.25,-0.1875,0.125,2.5625,77.75,-11.75,0.0,-1.875,-19.6875,0.985046,0.171326,0.016907,0.0,-0.01,0.0,0.0,-0.32,3.3,9.22,23
3.816243,-0.33,3.3,9.21,-0.125,-0.1875,0.25,2.5625,77.75,-11.75,0.0,-1.875,-19.6875,0.985046,0.171326,0.016907,0.0,0.0,-0.01,0.0,-0.32,3.3,9.22,23
3.827241,-0.32,3.29,9.21,-0.1875,-0.5,0.375,2.5625,77.75,-11.75,0.0,-1.875,-19.6875,0.985046,0.171326,0.016907,0.0,0.0,-0.01,0.0,-0.32,3.3,9.22,23
3.838239,-0.33,3.32,9.22,-0.125,-0.4375,0.25,5.25,77.0625,-14.875,0.0,-1.875,-19.6875,0.985046,0.171326,0.016907,0.0,0.0,0.0,0.0,-0.32,3.3,9.22,23
3.849237,-0.33,3.3,9.21,-0.125,-0.4375,0.375,5.25,77.0625,-14.875,0.0,-1.875,-19.6875,0.985046,0.171326,0.016907,0.0,0.0,0.0,0.0,-0.32,3.3,9.22,23
3.860235,-0.33,3.3,9.22,-0.125,-0.375,0.25,5.25,77.0625,-14.875,0.0,-1.875,-19.6875,0.985046,0.171326,0.016907,0.0,0.0,0.0,-0.02,-0.32,3.3,9.22,23
3.871232,-0.33,3.3,9.2,0.0,-0.125,0.1875,5.25,77.0625,-14.875,0.0,-1.875,-19.6875,0.985046,0.171326,0.016907,0.0,0.0,0.02,-0.03,-0.32,3.3,9.22,23
3.88223,-0.32,3.33,9.18,-0.0625,0.0625,0.25,2.25,78.5625,-11.75,0.0,-1.875,-19.6875,0.985046,0.171326,0.016907,0.0,0.0,0.0,0.0,-0.32,3.3,9.22,23
3.893228,-0.33,3.3,9.21,0.0,-0.0625,0.1875,2.25,78.5625,-11.75,0.0,-1.875,-19.6875,0.985046,0.171326,0.016907,0.0,0.0,0.0,0.0,-0.32,3.3,9.22,23
3.904226,-0.33,3.32,9.2,-0.0625,-0.3125,0.1875,2.25,78.5625,-11.75,0.0,-1.875,-19.6875,0.985046,0.171326,0.016907,0.0,0.0,-0.01,0.0,-0.32,3.3,9.22,23
3.915224,-0.32,3.29,9.22,0.0,-0.1875,0.3125,2.25,78.5625,-11.75,0.0,-1.875,-19.6875,0.985046,0.171326,0.016907,0.0,0.0,0.0,0.0,-0.32,3.3,9.22,23
3.926222,-0.33,3.3,9.22,0.0625,-0.1875,0.1875,2.25,78.5625,-11.75,0.0,-1.875,-19.6875,0.985046,0.171326,0.016907,0.0,0.0,0.0,0.0,-0.32,3.3,9.22,23
3.937219,-0.32,3.32,9.21,-0.1875,0.0,0.3125,3.375,77.75,-11.0,0.0,-1.875,-19.6875,0.985046,0.171326,0.016907,0.0,0.0,0.0,0.0,-0.32,3.3,9.22,23
3.948217,-0.32,3.31,9.22,-0.0625,-0.125,0.1875,3.375,77.75,-11.0,0.0,-1.875,-19.6875,0.985046,0.171326,0.016907,0.0,0.0,0.0,0.0,-0.32,3.3,9.22,23
3.959215,-0.32,3.31,9.21,0.0,-0.0625,0.25,3.375,77.75,-11.0,0.0,-1.875,-19.6875,0.985046,0.171326,0.016907,0.0,0.0,-0.02,0.0,-0.32,3.3,9.22,23
3.970213,-0.33,3.28,9.22,-0.25,-0.375,0.125,3.375,77.75,-11.0,0.0,-1.875,-19.6875,0.985046,0.171326,0.016907,0.0,0.0,0.0,-0.01,-0.32,3.3,9.22,23
3.981211,-0.32,3.31,9.2,-0.125,-0.3125,0.3125,2.25,78.1875,-11.0,0.0,-1.875,-19.6875,0.985046,0.171326,0.016907,0.0,0.0,0.0,0.0,-0.32,3.3,9.22,23
3.992208,-0.31,3.31,9.2,-0.1875,0.0,0.125,2.25,78.1875,-11.0,0.0,-1.875,-19.6875,0.985046,0.171326,0.016907,0.0,0.01,0.0,-0.01,-0.32,3.3,9.22,23
4.003206,-0.33,3.3,9.22,0.0625,-0.1875,0.4375,2.25,78.1875,-11.0,0.0,-1.875,-19.6875,0.985046,0.171326,0.016907,0.0,0.0,0.0,0.01,-0.32,3.3,9.22,23
4.014204,-0.33,3.31,9.24,-0.125,-0.1875,0.1875,2.25,78.1875,-11.0,0.0,-1.875,-19.6875,0.985046,0.171326,0.016907,0.0,0.0,0.0,0.0,-0.32,3.3,9.22,23
4.025202,-0.32,3.31,9.22,0.0,0.125,0.25,2.25,78.1875,-11.0,0.0,-1.875,-19.6875,0.985046,0.171326,0.016907,0.0,0.0,0.0,0.0,-0.32,3.3,9.22,23
4.0362,-0.32,3.29,9.23,-0.1875,-0.1875,0.125,1.875,77.375,-12.5625,0.0,-1.875,-19.6875,0.985046,0.171326,0.016907,0.0,0.01,0.0,0.0,-0.32,3.3,9.22,23
4.047198,-0.31,3.31,9.22,-0.1875,-0.0625,0.1875,1.875,77.375,-12.5625,0.0,-1.875,-19.6875,0.985046,0.171326,0.016907,0.0,0.0,0.01,0.0,-0.32,3.3,9.22,23
4.058195,-0.33,3.32,9.21,-0.1875,-0.3125,0.1875,1.875,77.375,-12.5625,0.0,-1.875,-19.6875,0.985046,0.171326,0.016907,0.0,0.0,0.0,0.0,-0.32,3.3,9.22,23
4.069193,-0.33,3.3,9.22,0.0,-0.1875,0.1875,1.875,77.375,-12.5625,0.0,-1.875,-19.6875,0.985046,0.171326,0.016907,0.0,0.0,0.01,-0.01,-0.32,3.3,9.22,23
4.080191,-0.32,3.32,9.21,-0.0625,-0.25,0.25,1.5,77.375,-11.375,0.0,-1.875,-19.6875,0.985046,0.171326,0.016907,0.0,0.0,0.0,0.0,-0.32,3.3,9.22,23
4.091189,-0.33,3.31,9.23,-0.125,-0.3125,0.3125,1.5,77.375,-11.375,0.0,-1.875,-19.6875,0.985046,0.171326,0.016907,0.0,0.01,0.0,0.0,-0.32,3.3,9.22,23
4.102187,-0.31,3.31,9.23,0.0625,-0.125,0.25,1.5,77.375,-11.375,0.0,-1.875,-19.6875,0.985046,0.171326,0.016907,0.0,0.0,0.0,-0.02,-0.32,3.3,9.22,23
4.113184,-0.32,3.3,9.2,0.125,-0.3125,0.1875,1.5,77.375,-11.375,0.0,-1.875,-19.6875,0.985046,0.171326,0.016907,0.0,0.0,-0.01,-0.02,-0.32,3.3,9.22,23
4.124182,-0.33,3.29,9.19,-0.125,-0.0625,0.3125,1.5,77.375,-11.375,0.0,-1.875,-19.6875,0.985046,0.171326,0.016907,0.0,0.0,0.0,-0.02,-0.32,3.3,9.22,23
4.13518,-0.33,3.3,9.2,0.0625,0.125,0.25,2.25,78.1875,-11.75,0.0,-1.875,-19.6875,0.985046,0.171326,0.016907,0.0,0.0,0.02,0.0,-0.32,3.3,9.22,23
4.146178,-0.32,3.33,9.22,-0.125,-0.1875,0.1875,2.25,78.1875,-11.75,0.0,-1.875,-19.6875,0.985046,0.171326,0.016907,0.0,0.0,0.0,0.0,-0.32,3.3,9.22,23
4.157176,-0.32,3.29,9.2,0.125,0.1875,0.3125,2.25,78.1875,-11.75,0.0,-1.875,-19.6875,0.985046,0.171326,0.016907,0.0,0.0,-0.01,-0.02,-0.32,3.3,9.22,23
4.168174,-0.32,3.3,9.22,-0.0625,-0.0625,0.1875,2.25,78.1875,-11.75,0.0,-1.875,-19.6875,0.985046,0.171326,0.016907,0.0,0.0,0.0,0.0,-0.32,3.3,9.22,23
4.179171,-0.32,3.31,9.21,-0.1875,-0.3125,0.1875,1.5,78.1875,-11.375,0.0,-1.875,-19.6875,0.985046,0.171326,0.016907,0.0,0.0,0.01,0.02,-0.32,3.3,9.22,23
4.190169,-0.32,3.32,9.24,0.0,-0.375,0.25,1.5,78.1875,-11.375,0.0,-1.875,-19.6875,0.985046,0.171326,0.016907,0.0,0.0,0.0,0.0,-0.32,3.3,9.22,23
4.201167,-0.33,3.31,9.21,0.0,-0.4375,0.1875,1.5,78.1875,-11.375,0.0,-1.875,-19.6875,0.985046,0.171326,0.016907,0.0,0.01,0.01,-0.01,-0.32,3.3,9.22,23
4.212165,-0.31,3.32,9.21,0.0,-0.3125,0.1875,1.5,78.1875,-11.375,0.0,-1.875,-19.6875,0.985046,0.171326,0.016907,0.0,0.01,0.0,-0.01,-0.32,3.3,9.22,23
4.223163,-0.31,3.31,9.2,-0.125,-0.25,0.25,1.5,78.1875,-11.375,0.0,-1.875,-19.6875,0.985046,0.171326,0.016907,0.0,0.0,0.0,0.0,-0.32,3.3,9.22,23
4.23416,-0.32,3.31,9.22,-0.0625,-0.25,0.1875,2.5625,78.5625,-11.75,0.0,-1.875,-19.6875,0.985046,0.171326,0.016907,0.0,0.0,0.01,0.0,-0.32,3.3,9.22,23
4.245158,-0.33,3.32,9.22,0.0,-0.125,0.1875,2.5625,78.5625,-11.75,0.0,-1.875,-19.6875,0.985046,0.171326,0.016907,0.0,0.0,0.0,0.0,-0.32,3.3,9.22,23
4.256156,-0.32,3.31,9.22,0.0625,-0.375,0.25,2.5625,78.5625,-11.75,0.0,-1.875,-19.6875,0.985046,0.171326,0.016907,0.0,-0.01,-0.01,0.0,-0.32,3.3,9.22,23
4.267154,-0.33,3.29,9.22,-0.25,-0.5,0.1875,2.5625,78.5625,-11.75,0.0,-1.875,-19.6875,0.985046,0.171326,0.016907,0.0,0.0,0.0,-0.01,-0.32,3.3,9.22,23
4.278152,-0.33,3.3,9.2,-0.125,-0.3125,0.25,2.5625,78.5625,-11.75,0.0,-1.875,-19.6875,0.985046,0.171326,0.016907,0.0,0.0,0.0,0.0,-0.32,3.3,9.22,23
4.28915,-0.32,3.31,9.22,0.0,-0.0625,0.1875,3.75,77.375,-11.0,0.0,-1.875,-19.6875,0.985046,0.171326,0.016907,0.0,0.0,0.02,0.0,-0.32,3.3,9.22,23
4.300147,-0.33,3.31,9.22,-0.0625,-0.125,0.3125,3.75,77.375,-11.0,0.0,-1.875,-19.6875,0.985046,0.171326,0.016907,0.0,0.0,0.0,0.0,-0.32,3.3,9.22,23
4.311145,-0.32,3.3,9.19,0.0,-0.4375,0.25,3.75,77.375,-11.0,0.0,-1.875,-19.6875,0.985046,0.171326,0.016846,0.0,0.0,0.0,0.0,-0.32,3.3,9.22,23
4.322143,-0.33,3.31,9.22,-0.375,-0.625,0.25,3.75,77.375,-11.0,0.0,-1.875,-19.6875,0.985046,0.171326,0.016846,0.0,0.0,0.0,0.0,-0.32,3.3,9.22,23
4.333141,-0.31,3.31,9.22,-0.125,-0.375,0.1875,3.75,77.375,-11.0,0.0,-1.875,-19.6875,0.985046,0.171326,0.016846,0.0,0.0,0.0,0.0,-0.32,3.3,9.22,23
4.344139,-0.33,3.31,9.21,-0.125,-0.0625,0.0,2.5625,78.1875,-11.375,0.0,-1.875,-19.6875,0.985046,0.171326,0.016846,0.0,0.0,0.01,0.0,-0.32,3.3,9.22,23
4.355136,-0.32,3.32,9.21,0.0,-0.25,0.0625,2.5625,78.1875,-11.375,0.0,-1.875,-19.6875,0.985046,0.171326,0.016846,0.0,0.0,0.0,-0.02,-0.32,3.3,9.22,23
4.366134,-0.32,3.3,9.2,-0.125,-0.375,-0.0625,2.5625,78.1875,-11.375,0.0,-1.875,-19.6875,0.985046,0.171326,0.016846,0.0,0.0,0.03,0.0,-0.32,3.3,9.22,23
4.377132,-0.32,3.34,9.23,0.0,-0.125,0.0,2.5625,78.1875,-11.375,0.0,-1.875,-19.6875,0.985046,0.171326,0.016846,0.0,0.0,0.0,0.01,-0.32,3.3,9.22,23
4.38813,-0.32,3.3,9.23,-0.1875,-0.3125,-0.0625,0.375,78.875,-14.5,0.0,-1.875,-19.6875,0.985046,0.171326,0.016846,0.0,-0.01,0.0,0.0,-0.32,3.3,9.22,23
4.399128,-0.33,3.3,9.22,0.0,-0.0625,0.0,0.375,78.875,-14.5,0.0,-1.875,-19.6875,0.985046,0.171326,0.016846,0.0,0.0,-0.01,0.0,-0.32,3.3,9.22,23
4.410126,-0.32,3.29,9.22,-0.0625,0.125,-0.0625,0.375,78.875,-14.5,0.0,-1.875,-19.6875,0.985046,0.171326,0.016846,0.0,0.0,0.0,0.0,-0.32,3.3,9.22,23
4.421123,-0.33,3.3,9.21,0.0,0.1875,0.0,0.375,78.875,-14.5,0.0,-1.875,-19.6875,0.985046,0.171326,0.016846,0.0,-0.01,0.0,0.0,-0.32,3.3,9.22,23
4.432121,-0.32,3.31,9.2,0.125,0.1875,-0.125,0.375,78.875,-14.5,0.0,-1.875,-19.6875,0.985046,0.171326,0.016846,0.0,0.0,0.0,-0.01,-0.32,3.3,9.22,23
4.443119,-0.33,3.29,9.22,-0.125,-0.0625,0.0625,1.875,77.75,-12.0625,0.0,-1.875,-19.6875,0.985046,0.171326,0.016846,0.0,0.0,-0.01,0.0,-0.32,3.3,9.22,23
4.454117,-0.32,3.29,9.22,-0.1875,-0.125,0.0,1.875,77.75,-12.0625,0.0,-1.875,-19.6875,0.985046,0.171326,0.016846,0.0,-0.01,-0.03,-0.02,-0.32,3.3,9.22,23
4.465115,-0.33,3.27,9.2,0.0,0.3125,-0.0625,1.875,77.75,-12.0625,0.0,-1.875,-19.6875,0.985046,0.171326,0.016846,0.0,-0.01,0.0,0.0,-0.32,3.3,9.22,23
4.476112,-0.33,3.3,9.22,0.0,-0.125,-0.0625,1.875,77.75,-12.0625,0.0,-1.875,-19.6875,0.985046,0.171326,0.016846,0.0,0.0,0.0,0.0,-0.32,3.3,9.22,23
4.48711,-0.32,3.3,9.21,0.25,0.1875,0.0,1.875,77.75,-12.0625,0.0,-1.875,-19.6875,0.985046,0.171326,0.016846,0.0,0.0,0.0,0.0,-0.32,3.3,9.22,23
4.498108,-0.33,3.31,9.21,0.25,0.0625,0.0,2.5625,78.5625,-10.1875,0.0,-1.875,-19.6875,0.985046,0.171326,0.016846,0.0,0.0,0.0,-0.01,-0.32,3.3,9.22,23
4.509106,-0.33,3.31,9.2,0.0625,-0.1875,0.0625,2.5625,78.5625,-10.1875,0.0,-1.875,-19.6875,0.985046,0.171326,0.016846,0.0,-0.01,0.02,0.0,-0.32,3.3,9.22,23
4.520104,-0.33,3.33,9.22,-0.125,-0.0625,-0.125,2.5625,78.5625,-10.1875,0.0,-1.875,-19.6875,0.985046,0.171326,0.016846,0.0,0.0,-0.01,0.01,-0.32,3.3,9.22,23
4.531102,-0.33,3.31,9.25,0.125,-0.125,0.0,2.5625,78.5625,-10.1875,0.0,-1.875,-19.6875,0.985046,0.171326,0.016846,0.0,-0.01,0.0,0.02,-0.32,3.3,9.22,23
4.542099,-0.31,3.3,9.22,0.0,-0.125,0.0,1.5,77.75,-11.0,0.0,-1.875,-19.6875,0.985046,0.171326,0.016846,0.0,0.0,0.0,0.0,-0.32,3.3,9.22,23
4.553097,-0.32,3.3,9.22,0.0625,0.0625,0.0,1.5,77.75,-11.0,0.0,-1.875,-19.6875,0.985046,0.171326,0.016846,0.0,0.0,0.0,-0.01,-0.32,3.3,9.22,23
4.564095,-0.32,3.31,9.2,-0.1875,-0.125,0.0625,1.5,77.75,-11.0,0.0,-1.875,-19.6875,0.985046,0.171326,0.016846,0.0,0.0,0.03,0.0,-0.32,3.3,9.22,23
4.575093,-0.32,3.34,9.22,-0.125,-0.0625,-0.125,1.5,77.75,-11.0,0.0,-1.875,-19.6875,0.985046,0.171326,0.016846,0.0,0.0,0.0,0.0,-0.32,3.3,9.22,23
4.586091,-0.32,3.31,9.23,0.0,-0.1875,0.125,0.75,77.375,-10.1875,0.0,-1.875,-19.6875,0.985046,0.171326,0.016846,0.0,0.0,-0.01,-0.01,-0.32,3.3,9.22,23
4.597088,-0.32,3.29,9.21,-0.25,-0.1875,-0.125,0.75,77.375,-10.1875,0.0,-1.875,-19.6875,0.985046,0.171326,0.016846,0.0,-0.01,0.0,0.0,-0.32,3.3,9.22,23
4.608086,-0.33,3.3,9.21,-0.25,-0.125,-0.0625,0.75,77.375,-10.1875,0.0,-1.875,-19.6875,0.985046,0.171326,0.016846,0.0,0.0,0.0,-0.02,-0.32,3.3,9.22,23
4.619084,-0.32,3.31,9.2,-0.125,0.0625,-0.125,0.75,77.375,-10.1875,0.0,-1.875,-19.6875,0.985046,0.171326,0.016846,0.0,0.0,0.01,0.0,-0.32,3.3,9.22,23
4.630082,-0.33,3.32,9.22,0.0625,-0.0625,-0.125,0.75,77.375,-10.1875,0.0,-1.875,-19.6875,0.985046,0.171326,0.016846,0.0,0.0,0.0,0.0,-0.32,3.3,9.22,23
4.64108,-0.33,3.31,9.22,0.125,0.0,0.0,3.375,77.375,-13.25,0.0,-1.875,-19.6875,0.985046,0.171326,0.016846,0.0,0.0,0.0,0.01,-0.32,3.3,9.22,23
4.652078,-0.32,3.3,9.23,0.0,0.125,0.0,3.375,77.375,-13.25,0.0,-1.875,-19.6875,0.985046,0.171326,0.016846,0.0,0.0,0.0,-0.01,-0.32,3.3,9.22,23
4.663075,-0.32,3.31,9.2,0.0,0.0625,0.0625,3.375,77.375,-13.25,0.0,-1.875,-19.6875,0.985046,0.171326,0.016846,0.0,0.0,0.0,0.0,-0.32,3.3,9.22,23
4.674073,-0.33,3.31,9.22,-0.125,0.25,-0.0625,3.375,77.375,-13.25,0.0,-1.875,-19.6875,0.985046,0.171326,0.016846,0.0,0.0,0.0,0.01,-0.32,3.3,9.22,23
4.685071,-0.31,3.31,9.23,-0.3125,0.0625,-0.125,3.375,77.375,-13.25,0.0,-1.875,-19.6875,0.985046,0.171326,0.016846,0.0,0.0,0.0,0.0,-0.32,3.3,9.22,23
4.696069,-0.31,3.3,9.21,-0.25,0.0625,0.0,4.5,77.0625,-16.5,0.0,-1.875,-19.6875,0.985046,0.171326,0.016846,0.0,-0.01,0.0,0.01,-0.32,3.3,9.22,23
4.707067,-0.33,3.31,9.23,0.0,-0.1875,0.0625,4.5,77.0625,-16.5,0.0,-1.875,-19.6875,0.985046,0.171326,0.016846,0.0,0.0,-0.01,0.01,-0.32,3.3,9.22,23
4.718065,-0.33,3.29,9.23,-0.125,0.0625,-0.1875,4.5,77.0625,-16.5,0.0,-1.875,-19.6875,0.985046,0.171326,0.016846,0.0,-0.01,0.02,-0.01,-0.32,3.3,9.22,23
4.729062,-0.33,3.33,9.21,0.0625,-0.0625,0.0625,4.5,77.0625,-16.5,0.0,-1.875,-19.6875,0.985046,0.171326,0.016846,0.0,0.0,-0.01,-0.01,-0.32,3.3,9.22,23
4.74006,-0.33,3.29,9.21,-0.0625,0.1875,0.0625,4.5,77.0625,-16.5,0.0,-1.875,-19.6875,0.985046,0.171326,0.016846,0.0,-0.01,0.0,0.0,-0.32,3.3,9.22,23
4.751058,-0.33,3.31,9.23,0.0,0.25,0.0,6.0,76.25,-15.6875,0.0,-1.875,-19.6875,0.985046,0.171326,0.016846,0.0,-0.01,0.0,0.0,-0.32,3.3,9.22,23
4.762056,-0.33,3.31,9.22,-0.0625,0.1875,-0.0625,6.0,76.25,-15.6875,0.0,-1.875,-19.6875,0.985046,0.171326,0.016846,0.0,0.0,0.0,0.01,-0.32,3.3,9.22,23
4.773054,-0.32,3.31,9.24,-0.25,0.125,0.0,6.0,76.25,-15.6875,0.0,-1.875,-19.6875,0.985046,0.171326,0.016846,0.0,0.0,0.02,-0.01,-0.32,3.3,9.22,23
4.784051,-0.33,3.33,9.2,-0.125,0.1875,-0.0625,6.0,76.25,-15.6875,0.0,-1.875,-19.6875,0.985046,0.171326,0.016846,0.0,-0.01,0.0,-0.01,-0.32,3.3,9.22,23
4.795049,-0.33,3.31,9.2,-0.3125,-0.125,-0.0625,6.0,76.25,-15.6875,0.0,-1.875,-19.6875,0.985046,0.171326,0.016846,0.0,-0.01,0.01,0.0,-0.32,3.3,9.22,23
4.806047,-0.33,3.32,9.23,0.125,0.1875,-0.0625,6.375,77.375,-16.5,0.0,-1.875,-19.6875,0.985046,0.171326,0.016846,0.0,0.0,0.0,0.0,-0.32,3.3,9.22,23
4.817045,-0.33,3.3,9.22,0.0625,0.125,0.0,6.375,77.375,-16.5,0.0,-1.875,-19.6875,0.985046,0.171326,0.016846,0.0,0.0,-0.01,-0.01,-0.32,3.3,9.22,23
4.828043,-0.32,3.29,9.21,0.125,0.0625,0.0,6.375,77.375,-16.5,0.0,-1.875,-19.6875,0.985046,0.171326,0.016846,0.0,0.0,0.0,-0.02,-0.32,3.3,9.22,23
4.839041,-0.32,3.31,9.2,-0.0625,0.0,-0.125,6.375,77.375,-16.5,0.0,-1.875,-19.6875,0.985046,0.171326,0.016846,0.0,0.0,0.0,0.0,-0.32,3.3,9.22,23
4.850038,-0.33,3.31,9.23,0.1875,0.0625,0.0,6.375,77.375,-16.5,0.0,-1.875,-19.6875,0.985046,0.171326,0.016846,0.0,-0.01,0.0,0.0,-0.32,3.3,9.22,23
4.861036,-0.33,3.3,9.22,0.0,0.3125,-0.0625,5.25,75.875,-16.5,0.0,-1.875,-19.6875,0.985046,0.171326,0.016846,0.0,0.0,0.0,0.0,-0.32,3.3,9.22,23
4.872034,-0.33,3.3,9.22,0.0625,-0.1875,-0.0625,5.25,75.875,-16.5,0.0,-1.875,-19.6875,0.985046,0.171326,0.016846,0.0,0.0,0.0,0.0,-0.32,3.3,9.22,23
4.883032,-0.32,3.31,9.22,0.25,-0.125,0.0,5.25,75.875,-16.5,0.0,-1.875,-19.6875,0.985046,0.171326,0.016846,0.0,-0.01,0.0,-0.01,-0.32,3.3,9.22,23
4.89403,-0.33,3.3,9.2,0.0,0.0,0.0,5.25,75.875,-16.5,0.0,-1.875,-19.6875,0.985046,0.171326,0.016846,0.0,-0.01,0.01,0.0,-0.32,3.3,9.22,23
4.905027,-0.33,3.32,9.22,-0.125,0.0,0.0,5.25,75.875,-16.5,0.0,-1.875,-19.6875,0.985046,0.171326,0.016846,0.0,0.0,0.01,-0.03,-0.32,3.3,9.22,23
4.916025,-0.32,3.32,9.18,0.0,0.0,0.0,2.5625,77.375,-10.1875,0.0,-1.875,-19.6875,0.985046,0.171326,0.016846,0.0,0.0,0.0,0.0,-0.32,3.3,9.22,23
4.927023,-0.32,3.3,9.22,0.0625,-0.0625,-0.0625,2.5625,77.375,-10.1875,0.0,-1.875,-19.6875,0.985046,0.171326,0.016846,0.0,-0.01,0.01,0.0,-0.32,3.3,9.22,23
4.938021,-0.33,3.3,9.21,-0.0625,0.0625,0.0,2.5625,77.375,-10.1875,0.0,-1.875,-19.6875,0.985046,0.171326,0.016846,0.0,0.0,0.0,-0.01,-0.32,3.3,9.22,23
4.949019,-0.32,3.32,9.21,0.125,0.0,-0.0625,2.5625,77.375,-10.1875,0.0,-1.875,-19.6875,0.985046,0.171326,0.016846,0.0,0.0,-0.01,0.0,-0.32,3.3,9.22,23
4.960017,-0.32,3.29,9.22,0.0625,-0.1875,0.0625,2.5625,77.375,-10.1875,0.0,-1.875,-19.6875,0.985046,0.171326,0.016846,0.0,0.0,-0.01,0.0,-0.32,3.3,9.22,23
4.971014,-0.32,3.32,9.22,0.0,-0.0625,0.0625,1.0625,78.5625,-11.0,0.0,-1.875,-19.6875,0.985046,0.171326,0.016846,0.0,0.0,0.0,0.0,-0.32,3.3,9.22,23
4.982012,-0.32,3.31,9.22,-0.25,-0.3125,0.0,1.0625,78.5625,-11.0,0.0,-1.875,-19.6875,0.985046,0.171326,0.016846,0.0,0.0,0.0,-0.02,-0.32,3.3,9.22,23
4.99301,-0.32,3.31,9.19,0.0,-0.1875,0.0,1.0625,78.5625,-11.0,0.0,-1.875,-19.6875,0.985046,0.171326,0.016846,0.0,0.0,0.0,0.01,-0.32,3.3,9.22,23
5.004008,-0.33,3.3,9.24,-0.0625,-0.25,0.125,1.0625,78.5625,-11.0,0.0,-1.875,-19.6875,0.985046,0.171326,0.016846,0.0,-0.01,0.0,0.0,-0.32,3.3,9.22,23
5.015006,-0.32,3.3,9.23,-0.0625,-0.0625,0.0625,5.5625,75.875,-14.875,0.0,-1.875,-19.6875,0.985046,0.171326,0.016846,0.0,0.0,0.0,0.0,-0.32,3.3,9.22,23
5.026003,-0.33,3.31,9.22,-0.3125,-0.25,-0.125,5.5625,75.875,-14.875,0.0,-1.875,-19.6875,0.985046,0.171326,0.016846,0.0,0.0,0.0,0.0,-0.32,3.3,9.22,23
5.037001,-0.32,3.31,9.22,-0.125,-0.3125,-0.0625,5.5625,75.875,-14.875,0.0,-1.875,-19.6875,0.985046,0.171326,0.016846,0.0,0.0,0.0,-0.02,-0.32,3.3,9.22,23
5.047999,-0.31,3.3,9.2,-0.25,-0.3125,-0.0625,5.5625,75.875,-14.875,0.0,-1.875,-19.6875,0.985046,0.171326,0.016846,0.0,0.0,0.0,-0.01,-0.32,3.3,9.22,23
5.058997,-0.33,3.31,9.2,-0.1875,-0.1875,0.0,5.5625,75.875,-14.875,0.0,-1.875,-19.6875,0.985046,0.171326,0.016846,0.0,0.0,0.0,-0.01,-0.32,3.3,9.22,23
5.069995,-0.33,3.32,9.22,-0.0625,0.125,-0.125,6.375,75.875,-14.875,0.0,-1.875,-19.6875,0.985046,0.171326,0.016846,0.0,0.0,0.0,0.0,-0.32,3.3,9.22,23
5.080993,-0.33,3.3,9.22,-0.0625,-0.1875,0.0,6.375,75.875,-14.875,0.0,-1.875,-19.6875,0.985046,0.171326,0.016846,0.0,0.0,0.0,0.0,-0.32,3.3,9.22,23
5.09199,-0.33,3.3,9.22,0.0,0.0625,0.0,6.375,75.875,-14.875,0.0,-1.875,-19.6875,0.985046,0.171326,0.016846,0.0,0.0,0.0,-0.01,-0.32,3.3,9.22,23
5.102988,-0.31,3.31,9.21,-0.0625,0.1875,0.0,6.375,75.875,-14.875,0.0,-1.875,-19.6875,0.985046,0.171326,0.016846,0.0,-0.01,0.0,0.0,-0.32,3.3,9.22,23
5.113986,-0.33,3.3,9.22,-0.125,0.0,-0.0625,2.5625,77.375,-12.1875,0.0,-1.875,-19.6875,0.985046,0.171326,0.016846,0.0,0.0,-0.02,0.01,-0.32,3.3,9.22,23
5.124984,-0.32,3.29,9.22,-0.0625,0.125,0.0,2.5625,77.375,-12.1875,0.0,-1.875,-19.6875,0.985046,0.171326,0.016846,0.0,0.0,-0.01,0.0,-0.32,3.3,9.22,23
5.135982,-0.32,3.31,9.22,0.0,-0.125,-0.0625,2.5625,77.375,-12.1875,0.0,-1.875,-19.6875,0.985046,0.171326,0.016846,0.0,0.0,0.0,0.0,-0.32,3.3,9.22,23
5.146979,-0.32,3.31,9.22,0.0,0.125,0.0,2.5625,77.375,-12.1875,0.0,-1.875,-19.6875,0.985046,0.171326,0.016846,0.0,0.0,-0.01,0.0,-0.32,3.3,9.22,23
5.157977,-0.32,3.29,9.21,-0.1875,-0.125,-0.0625,2.5625,77.375,-12.1875,0.0,-1.875,-19.6875,0.985046,0.171326,0.016846,0.0,0.0,-0.01,0.0,-0.32,3.3,9.22,23
5.168975,-0.32,3.29,9.21,0.0625,-0.125,-0.125,3.375,77.375,-11.375,0.0,-1.875,-19.6875,0.985046,0.171326,0.016846,0.0,0.0,0.0,-0.02,-0.32,3.3,9.22,23
5.179973,-0.32,3.31,9.2,0.0625,-0.1875,0.0,3.375,77.375,-11.375,0.0,-1.875,-19.6875,0.985046,0.171326,0.016846,0.0,0.0,-0.01,0.0,-0.32,3.3,9.22,23
5.190971,-0.32,3.29,9.21,0.0,-0.1875,0.0625,3.375,77.375,-11.375,0.0,-1.875,-19.6875,0.985046,0.171326,0.016846,0.0,0.0,0.0,-0.01,-0.32,3.3,9.22,23
5.201969,-0.32,3.31,9.21,-0.0625,-0.3125,0.0,3.375,77.375,-11.375,0.0,-1.875,-19.6875,0.985046,0.171326,0.016846,0.0,0.0,0.01,-0.01,-0.32,3.3,9.22,23
5.212966,-0.32,3.32,9.2,-0.0625,-0.3125,-0.0625,2.25,78.1875,-12.1875,0.0,-1.875,-19.6875,0.985046,0.171326,0.016846,0.0,0.0,-0.01,0.02,-0.32,3.3,9.22,23
5.223964,-0.33,3.29,9.24,0.125,0.0,-0.125,2.25,78.1875,-12.1875,0.0,-1.875,-19.6875,0.985046,0.171326,0.016846,0.0,-0.01,-0.02,-0.01,-0.32,3.3,9.22,23
5.234962,-0.33,3.28,9.2,-0.125,0.0,-0.1875,2.25,78.1875,-12.1875,0.0,-1.875,-19.6875,0.985046,0.171326,0.016846,0.0,0.0,0.0,-0.04,-0.32,3.3,9.22,23
5.24596,-0.32,3.31,9.18,-0.0625,-0.625,0.0,2.25,78.1875,-12.1875,0.0,-1.875,-19.6875,0.985046,0.171326,0.016785,-6.1e-05,0.0,0.0,-0.01,-0.32,3.3,9.22,23
5.256958,-0.32,3.31,9.2,0.0,-0.0625,0.0,2.25,78.1875,-12.1875,0.0,-1.875,-19.6875,0.985046,0.171326,0.016785,-6.1e-05,0.0,0.0,0.0,-0.32,3.3,9.22,23
5.267955,-0.32,3.31,9.22,0.0,0.0,-0.0625,3.375,77.375,-11.0,0.0,-1.875,-19.6875,0.985046,0.171326,0.016785,-6.1e-05,0.0,-0.01,0.01,-0.32,3.3,9.22,23
5.278953,-0.32,3.33,9.21,0.0625,0.125,-0.1875,3.375,77.375,-11.0,0.0,-1.875,-19.6875,0.985046,0.171326,0.016785,-6.1e-05,0.0,0.02,-0.01,-0.32,3.3,9.22,23
5.289951,-0.31,3.29,9.21,-0.125,-0.125,0.0625,3.375,77.375,-11.0,0.0,-1.875,-19.6875,0.985046,0.171326,0.016785,-6.1e-05,0.0,0.0,-0.01,-0.32,3.3,9.22,23
5.300949,-0.32,3.3,9.2,0.0625,-0.0625,0.0625,3.375,77.375,-11.0,0.0,-1.875,-19.6875,0.985046,0.171326,0.016785,-6.1e-05,0.0,0.0,0.02,-0.32,3.3,9.22,23
5.311947,-0.32,3.3,9.24,0.25,0.0,-0.0625,3.375,77.375,-11.0,0.0,-1.875,-19.6875,0.985046,0.171326,0.016785,-6.1e-05,0.0,0.0,0.02,-0.32,3.3,9.22,23
5.322945,-0.32,3.32,9.24,0.0,-0.125,-0.0625,3.375,78.5625,-11.75,0.0,-1.875,-19.6875,0.985046,0.171326,0.016785,-6.1e-05,-0.01,0.0,-0.02,-0.32,3.3,9.22,23
5.333942,-0.33,3.3,9.2,-0.0625,0.0625,0.0,3.375,78.5625,-11.75,0.0,-1.875,-19.6875,0.985046,0.171326,0.016785,-6.1e-05,0.0,0.0,-0.01,-0.32,3.3,9.22,23
5.34494,-0.32,3.31,9.21,-0.125,-0.0625,0.0,3.375,78.5625,-11.75,0.0,-1.875,-19.6875,0.985046,0.171326,0.016785,-6.1e-05,0.0,0.0,0.0,-0.32,3.3,9.22,23
5.355938,-0.33,3.3,9.22,-0.125,-0.1875,0.0,3.375,78.5625,-11.75,0.0,-1.875,-19.6875,0.985046,0.171326,0.016785,-6.1e-05,-0.01,-0.01,0.01,-0.32,3.3,9.22,23
5.366936,-0.33,3.29,9.23,-0.0625,0.0,-0.0625,2.25,77.0625,-12.1875,0.0,-1.875,-19.6875,0.985046,0.171326,0.016785,-6.1e-05,0.0,0.0,0.0,-0.32,3.3,9.22,23
5.377934,-0.33,3.3,9.24,0.0,-0.125,0.0,2.25,77.0625,-12.1875,0.0,-1.875,-19.6875,0.985046,0.171326,0.016785,-6.1e-05,0.0,0.0,0.01,-0.32,3.3,9.22,23
5.388931,-0.33,3.28,9.22,0.0,0.0,-0.125,2.25,77.0625,-12.1875,0.0,-1.875,-19.6875,0.985046,0.171326,0.016785,-6.1e-05,-0.02,0.01,0.0,-0.32,3.3,9.22,23
5.399929,-0.34,3.32,9.22,0.125,0.0625,0.0,2.25,77.0625,-12.1875,0.0,-1.875,-19.6875,0.985046,0.171326,0.016785,-6.1e-05,0.0,0.0,0.0,-0.32,3.3,9.22,23
5.410927,-0.32,3.31,9.22,0.0625,0.0,0.0,1.5,77.75,-10.1875,0.0,-1.875,-19.6875,0.985046,0.171326,0.016785,-6.1e-05,0.0,0.01,0.0,-0.32,3.3,9.22,23
5.421925,-0.32,3.32,9.21,0.0625,0.0,-0.0625,1.5,77.75,-10.1875,0.0,-1.875,-19.6875,0.985046,0.171326,0.016785,-6.1e-05,0.0,0.0,0.0,-0.32,3.3,9.22,23
5.432923,-0.33,3.31,9.22,-0.3125,-0.125,0.125,1.5,77.75,-10.1875,0.0,-1.875,-19.6875,0.985046,0.171326,0.016785,-6.1e-05,0.0,0.01,-0.01,-0.32,3.3,9.22,23
5.443921,-0.32,3.32,9.21,-0.1875,0.125,-0.0625,1.5,77.75,-10.1875,0.0,-1.875,-19.6875,0.985046,0.171326,0.016785,-6.1e-05,0.0,0.01,-0.01,-0.32,3.3,9.22,23
5.454918,-0.32,3.32,9.21,0.0,-0.125,0.0,1.5,77.75,-10.1875,0.0,-1.875,-19.6875,0.985046,0.171326,0.016785,-6.1e-05,0.0,0.0,0.0,-0.32,3.3,9.22,23
5.465916,-0.33,3.31,9.22,-0.1875,-0.0625,-0.125,2.5625,77.75,-11.375,0.0,-1.875,-19.6875,0.985046,0.171326,0.016785,-6.1e-05,0.0,0.0,0.0,-0.32,3.3,9.22,23
5.476914,-0.32,3.3,9.23,-0.0625,0.0,0.0625,2.5625,77.75,-11.375,0.0,-1.875,-19.6875,0.985046,0.171326,0.016785,-6.1e-05,0.0,0.0,0.01,-0.32,3.3,9.22,23
5.487912,-0.32,3.31,9.21,-0.3125,-0.3125,-0.1875,2.5625,77.75,-11.375,0.0,-1.875,-19.6875,0.985046,0.171326,0.016785,-6.1e-05,0.0,0.0,-0.02,-0.32,3.3,9.22,23
5.49891,-0.33,3.31,9.2,-0.0625,-0.1875,0.0625,2.5625,77.75,-11.375,0.0,-1.875,-19.6875,0.985046,0.171326,0.016785,-6.1e-05,0.0,0.01,0.0,-0.32,3.3,9.22,23
5.509908,-0.33,3.32,9.22,0.0625,0.0,-0.0625,2.5625,77.75,-11.375,0.0,-1.875,-19.6875,0.985046,0.171326,0.016785,-6.1e-05,0.0,0.01,0.0,-0.32,3.3,9.22,23
5.520905,-0.32,3.33,9.22,-0.25,0.125,-0.125,3.375,77.0625,-11.375,0.0,-1.875,-19.6875,0.985046,0.171326,0.016785,-6.1e-05,0.0,0.0,0.01,-0.32,3.3,9.22,23
5.531903,-0.32,3.31,9.23,0.125,0.0,-0.0625,3.375,77.0625,-11.375,0.0,-1.875,-19.6875,0.985046,0.171326,0.016785,-6.1e-05,0.0,0.0,0.0,-0.32,3.3,9.22,23
5.542901,-0.32,3.3,9.22,-0.125,0.3125,-0.125,3.375,77.0625,-11.375,0.0,-1.875,-19.6875,0.985046,0.171326,0.016785,-6.1e-05,0.0,-0.01,0.0,-0.32,3.3,9.22,23
5.553899,-0.32,3.29,9.23,-0.0625,0.125,0.0625,3.375,77.0625,-11.375,0.0,-1.875,-19.6875,0.985046,0.171326,0.016785,-6.1e-05,0.0,0.0,-0.01,-0.32,3.3,9.22,23
5.564897,-0.33,3.3,9.21,0.0,-0.0625,-0.0625,1.5,77.75,-11.0,0.0,-1.875,-19.6875,0.985046,0.171326,0.016785,-6.1e-05,0.0,0.0,-0.02,-0.32,3.3,9.22,23
5.575894,-0.32,3.3,9.2,0.0,-0.0625,-0.125,1.5,77.75,-11.0,0.0,-1.875,-19.6875,0.985046,0.171326,0.016785,-6.1e-05,0.0,0.01,-0.02,-0.32,3.3,9.22,23
5.586892,-0.32,3.32,9.19,-0.0625,0.125,0.0625,1.5,77.75,-11.0,0.0,-1.875,-19.6875,0.985046,0.171326,0.016785,-6.1e-05,0.0,0.01,0.0,-0.32,3.3,9.22,23
5.59789,-0.32,3.32,9.22,0.0625,0.0625,0.0,1.5,77.75,-11.0,0.0,-1.875,-19.6875,0.985046,0.171326,0.016785,-6.1e-05,-0.01,0.01,-0.01,-0.32,3.3,9.22,23
5.608888,-0.33,3.32,9.2,0.1875,-0.0625,0.0,1.5,77.75,-11.0,0.0,-1.875,-19.6875,0.985046,0.171326,0.016785,-6.1e-05,0.0,-0.01,-0.01,-0.32,3.3,9.22,23
5.619886,-0.32,3.29,9.21,-0.0625,0.0625,-0.0625,2.5625,77.75,-12.1875,0.0,-1.875,-19.6875,0.985046,0.171326,0.016785,-6.1e-05,0.0,0.01,-0.02,-0.32,3.3,9.22,23
5.630884,-0.32,3.3,9.21,-0.375,-0.5625,0.0,2.5625,77.75,-12.1875,0.0,-1.875,-19.6875,0.985046,0.171326,0.016785,-6.1e-05,0.0,0.0,-0.01,-0.32,3.3,9.22,23
5.641881,-0.32,3.34,9.18,-0.25,-0.0625,-0.125,2.5625,77.75,-12.1875,0.0,-1.875,-19.6875,0.985046,0.171326,0.016785,-6.1e-05,0.0,0.0,0.0,-0.32,3.3,9.22,23
5.652879,-0.33,3.31,9.21,0.125,0.125,-0.0625,2.5625,77.75,-12.1875,0.0,-1.875,-19.6875,0.985046,0.171326,0.016785,-6.1e-05,0.0,0.0,0.0,-0.32,3.3,9.22,23
5.663877,-0.33,3.3,9.22,0.1875,-0.125,-0.0625,2.5625,77.75,-12.1875,0.0,-1.875,-19.6875,0.985046,0.171326,0.016785,-6.1e-05,0.0,0.0,0.0,-0.32,3.3,9.22,23
5.674875,-0.32,3.32,9.22,-0.125,-0.0625,-0.0625,4.0625,77.75,-15.25,0.0,-1.875,-19.6875,0.985046,0.171326,0.016785,-6.1e-05,0.0,0.0,0.01,-0.32,3.3,9.22,23
5.685873,-0.33,3.3,9.24,-0.0625,-0.125,-0.0625,4.0625,77.75,-15.25,0.0,-1.875,-19.6875,0.985046,0.171326,0.016785,-6.1e-05,0.0,0.01,-0.01,-0.32,3.3,9.22,23
5.69687,-0.32,3.32,9.21,0.0,-0.1875,0.0625,4.0625,77.75,-15.25,0.0,-1.875,-19.6875,0.985046,0.171326,0.016785,-6.1e-05,0.0,0.02,0.0,-0.32,3.3,9.22,23
5.707868,-0.32,3.33,9.22,0.125,-0.0625,-0.0625,4.0625,77.75,-15.25,0.0,-1.875,-19.6875,0.985046,0.171326,0.016785,-6.1e-05,-0.01,0.0,0.01,-0.32,3.3,9.22,23
5.718866,-0.33,3.31,9.23,0.1875,0.3125,-0.0625,3.0,77.75,-10.5625,0.0,-1.875,-19.6875,0.985046,0.171326,0.016785,-6.1e-05,0.0,0.01,0.0,-0.32,3.3,9.22,23
5.729864,-0.32,3.32,9.22,-0.125,0.1875,0.0625,3.0,77.75,-10.5625,0.0,-1.875,-19.6875,0.985046,0.171326,0.016785,-6.1e-05,0.0,0.01,0.01,-0.32,3.3,9.22,23
5.740862,-0.32,3.32,9.23,-0.125,0.0,0.0625,3.0,77.75,-10.5625,0.0,-1.875,-19.6875,0.985046,0.171326,0.016785,-6.1e-05,-0.01,-0.01,-0.01,-0.32,3.3,9.22,23
5.75186,-0.33,3.29,9.2,-0.125,-0.1875,-0.0625,3.0,77.75,-10.5625,0.0,-1.875,-19.6875,0.985046,0.171326,0.016785,-6.1e-05,0.0,0.01,-0.01,-0.32,3.3,9.22,23
5.762857,-0.32,3.32,9.2,-0.1875,-0.0625,0.0,3.0,77.75,-10.5625,0.0,-1.875,-19.6875,0.985046,0.171326,0.016785,-6.1e-05,0.0,0.0,0.0,-0.32,3.3,9.22,23
5.773855,-0.32,3.3,9.22,0.125,0.0,-0.0625,0.375,78.1875,-11.0,0.0,-1.875,-19.6875,0.985046,0.171326,0.016785,-6.1e-05,0.0,0.01,0.0,-0.32,3.3,9.22,23
5.784853,-0.33,3.3,9.23,0.25,0.0,0.0625,0.375,78.1875,-11.0,0.0,-1.875,-19.6875,0.985046,0.171326,0.016785,-6.1e-05,0.0,0.0,0.0,-0.32,3.3,9.22,23
5.795851,-0.32,3.3,9.2,0.0,-0.1875,-0.1875,0.375,78.1875,-11.0,0.0,-1.875,-19.6875,0.985046,0.171326,0.016785,-6.1e-05,0.0,0.0,0.0,-0.32,3.3,9.22,23
5.806849,-0.33,3.3,9.21,0.1875,0.0625,0.0,0.375,78.1875,-11.0,0.0,-1.875,-19.6875,0.985046,0.171326,0.016785,-6.1e-05,0.0,-0.01,0.0,-0.32,3.3,9.22,23
5.817846,-0.32,3.29,9.22,-0.1875,0.0625,-0.0625,0.375,78.1875,-11.0,0.0,-1.875,-19.6875,0.985046,0.171326,0.016785,-6.1e-05,0.0,-0.01,0.0,-0.32,3.3,9.22,23
5.828844,-0.32,3.31,9.2,-0.3125,-0.1875,0.0,3.375,78.875,-11.375,0.0,-1.875,-19.6875,0.985046,0.171326,0.016785,-6.1e-05,0.0,0.0,0.0,-0.32,3.3,9.22,23
5.839842,-0.32,3.31,9.21,-0.0625,-0.0625,0.0625,3.375,78.875,-11.375,0.0,-1.875,-19.6875,0.985046,0.171326,0.016785,-6.1e-05,0.0,0.0,0.01,-0.32,3.3,9.22,23
5.85084,-0.33,3.3,9.23,0.0,0.0,0.0,3.375,78.875,-11.375,0.0,-1.875,-19.6875,0.985046,0.171326,0.016785,-6.1e-05,0.0,0.0,0.0,-0.32,3.3,9.22,23
5.861838,-0.32,3.3,9.21,-0.0625,-0.125,0.0625,3.375,78.875,-11.375,0.0,-1.875,-19.6875,0.985046,0.171326,0.016785,-6.1e-05,-0.01,-0.02,0.0,-0.32,3.3,9.22,23
5.872836,-0.33,3.28,9.22,0.0625,0.0625,0.0625,3.0,77.0625,-12.1875,0.0,-1.875,-19.6875,0.985046,0.171326,0.016785,-6.1e-05,0.0,0.0,0.0,-0.32,3.3,9.22,23
5.883833,-0.32,3.3,9.23,0.1875,-0.1875,0.0625,3.0,77.0625,-12.1875,0.0,-1.875,-19.6875,0.985046,0.171326,0.016785,-6.1e-05,0.0,0.0,0.02,-0.32,3.3,9.22,23
5.894831,-0.31,3.3,9.25,-0.125,0.0625,0.0,3.0,77.0625,-12.1875,0.0,-1.875,-19.6875,0.985046,0.171326,0.016785,-6.1e-05,0.0,0.01,0.0,-0.32,3.3,9.22,23
5.905829,-0.32,3.32,9.22,0.0,0.0,-0.125,3.0,77.0625,-12.1875,0.0,-1.875,-19.6875,0.985046,0.171326,0.016785,-6.1e-05,0.0,0.0,0.0,-0.32,3.3,9.22,23
5.916827,-0.32,3.3,9.23,-0.125,-0.25,0.0,3.0,77.0625,-12.1875,0.0,-1.875,-19.6875,0.985046,0.171326,0.016785,-6.1e-05,0.0,0.0,0.0,-0.32,3.3,9.22,23
5.927825,-0.32,3.3,9.22,0.0,0.0,0.0,3.75,78.1875,-11.375,0.0,-1.875,-19.6875,0.985046,0.171326,0.016785,-6.1e-05,0.0,0.02,0.01,-0.32,3.3,9.22,23
5.938822,-0.33,3.28,9.22,0.0625,0.125,-0.0625,3.75,78.1875,-11.375,0.0,-1.875,-19.6875,0.985046,0.171326,0.016785,-6.1e-05,-0.01,-0.02,0.0,-0.32,3.3,9.22,23
5.94982,-0.31,3.32,9.21,0.0625,0.0,-0.0625,3.75,78.1875,-11.375,0.0,-1.875,-19.6875,0.985046,0.171326,0.016785,-6.1e-05,-0.01,0.0,-0.02,-0.32,3.3,9.22,23
5.960818,-0.33,3.3,9.2,0.0625,-0.375,0.125,3.75,78.1875,-11.375,0.0,-1.875,-19.6875,0.985046,0.171326,0.016785,-6.1e-05,-0.01,0.0,0.0,-0.32,3.3,9.22,23
5.971816,-0.33,3.3,9.22,0.0,-0.0625,-0.125,3.75,78.1875,-11.375,0.0,-1.875,-19.6875,0.985046,0.171326,0.016785,-6.1e-05,-0.01,0.0,0.0,-0.32,3.3,9.22,23
5.982814,-0.32,3.3,9.21,-0.125,-0.125,-0.0625,4.875,76.25,-15.6875,0.0,-1.875,-19.6875,0.985046,0.171326,0.016785,-6.1e-05,-0.01,0.0,0.0,-0.32,3.3,9.22,23
5.993812,-0.33,3.31,9.22,0.0,0.125,0.0,4.875,76.25,-15.6875,0.0,-1.875,-19.6875,0.985046,0.171326,0.016785,-6.1e-05,-0.01,0.0,-0.03,-0.32,3.3,9.22,23
6.004809,-0.33,3.3,9.19,-0.125,0.0625,-0.1875,4.875,76.25,-15.6875,0.0,-1.875,-19.6875,0.985046,0.171326,0.016785,-6.1e-05,-0.01,0.01,0.0,-0.32,3.3,9.22,23
6.015807,-0.33,3.32,9.22,0.1875,-0.125,-0.125,4.875,76.25,-15.6875,0.0,-1.875,-19.6875,0.985046,0.171326,0.016785,-6.1e-05,0.0,0.0,0.01,-0.32,3.3,9.22,23
6.026805,-0.32,3.31,9.23,-0.125,0.0625,0.0,4.875,75.875,-14.5,0.0,-1.875,-19.6875,0.985046,0.171326,0.016785,-6.1e-05,0.0,0.0,0.01,-0.32,3.3,9.22,23
6.037803,-0.32,3.3,9.23,0.1875,0.0,0.0,4.875,75.875,-14.5,0.0,-1.875,-19.6875,0.985046,0.171326,0.016785,-6.1e-05,0.0,0.0,0.0,-0.32,3.3,9.22,23
6.048801,-0.32,3.31,9.23,0.125,0.0625,0.0625,4.875,75.875,-14.5,0.0,-1.875,-19.6875,0.985046,0.171326,0.016785,-6.1e-05,0.0,0.0,-0.02,-0.32,3.3,9.22,23
6.059798,-0.32,3.31,9.2,0.0,0.0625,-0.0625,4.875,75.875,-14.5,0.0,-1.875,-19.6875,0.985046,0.171326,0.016785,-6.1e-05,-0.01,0.0,0.0,-0.32,3.3,9.22,23
6.070796,-0.33,3.3,9.23,0.0,-0.3125,0.0,4.875,75.875,-14.5,0.0,-1.875,-19.6875,0.985046,0.171326,0.016785,-6.1e-05,0.0,0.0,0.01,-0.32,3.3,9.22,23
6.081794,-0.33,3.31,9.24,0.0625,0.0,-0.0625,4.875,77.375,-16.0625,0.0,-1.875,-19.6875,0.985046,0.171326,0.016785,-6.1e-05,0.0,0.0,0.0,-0.32,3.3,9.22,23
6.092792,-0.31,3.31,9.22,-0.0625,0.0,-0.125,4.875,77.375,-16.0625,0.0,-1.875,-19.6875,0.985046,0.171326,0.016785,-6.1e-05,0.0,-0.01,0.0,-0.32,3.3,9.22,23
6.10379,-0.31,3.29,9.22,0.0,0.0,0.0,4.875,77.375,-16.0625,0.0,-1.875,-19.6875,0.985046,0.171326,0.016785,-6.1e-05,0.0,0.0,-0.01,-0.32,3.3,9.22,23
6.114788,-0.32,3.3,9.2,0.0625,0.0,-0.125,4.875,77.375,-16.0625,0.0,-1.875,-19.6875,0.985046,0.171326,0.016785,-6.1e-05,0.0,0.0,-0.01,-0.32,3.3,9.22,23
6.125785,-0.31,3.3,9.21,-0.1875,-0.0625,-0.1875,4.875,77.375,-16.0625,0.0,-1.875,-19.6875,0.985046,0.171326,0.016785,-6.1e-05,-0.01,0.0,0.04,-0.32,3.3,9.22,23
6.136783,-0.33,3.31,9.26,-0.1875,-0.0625,-0.0625,5.25,76.6875,-15.25,0.0,-1.875,-19.6875,0.985046,0.171326,0.016785,-6.1e-05,-0.01,-0.02,-0.03,-0.32,3.3,9.22,23
6.147781,-0.33,3.28,9.19,0.0,-0.3125,0.0,5.25,76.6875,-15.25,0.0,-1.875,-19.6875,0.985046,0.171326,0.016785,-6.1e-05,0.0,0.0,0.0,-0.32,3.3,9.22,23
6.158779,-0.33,3.3,9.23,-0.125,-0.1875,-0.1875,5.25,76.6875,-15.25,0.0,-1.875,-19.6875,0.985046,0.171326,0.016785,-6.1e-05,0.0,0.01,0.0,-0.32,3.3,9.22,23
6.169777,-0.33,3.32,9.22,-0.0625,-0.1875,-0.0625,5.25,76.6875,-15.25,0.0,-1.875,-19.6875,0.985046,0.171326,0.016785,-6.1e-05,-0.01,0.0,0.0,-0.32,3.3,9.22,23
6.180774,-0.33,3.3,9.22,-0.1875,-0.125,0.0,5.25,76.6875,-15.25,0.0,-1.875,-19.6875,0.985046,0.171326,0.016785,-6.1e-05,0.0,0.01,0.0,-0.32,3.3,9.22,23
6.191772,-0.32,3.32,9.22,0.0,0.0,-0.25,2.25,77.75,-11.0,0.0,-1.875,-19.6875,0.985046,0.171326,0.016785,-6.1e-05,0.0,0.0,0.0,-0.32,3.3,9.22,23
6.20277,-0.32,3.31,9.18,-0.0625,-0.1875,0.0,2.25,77.75,-11.0,0.0,-1.875,-19.6875,0.985046,0.171326,0.016785,-6.1e-05,0.0,0.0,-0.03,-0.32,3.3,9.22,23
6.213768,-0.32,3.31,9.22,0.0625,0.0,-0.0625,2.25,77.75,-11.0,0.0,-1.875,-19.6875,0.985046,0.171326,0.016785,-6.1e-05,-0.01,-0.02,0.0,-0.32,3.3,9.22,23
6.224766,-0.33,3.28,9.21,0.0625,0.0625,0.125,2.25,77.75,-11.0,0.0,-1.875,-19.6875,0.985046,0.171326,0.016785,-6.1e-05,0.0,0.0,0.0,-0.32,3.3,9.22,23
6.235764,-0.32,3.3,9.21,-0.0625,-0.25,-0.0625,2.25,77.75,-11.0,0.0,-1.875,-19.6875,0.985046,0.171326,0.016785,-6.1e-05,0.0,0.0,0.0,-0.32,3.3,9.22,23
6.246761,-0.32,3.32,9.22,-0.0625,-0.25,0.0625,3.75,77.75,-10.1875,0.0,-1.875,-19.6875,0.985046,0.171326,0.016785,-6.1e-05,0.0,0.01,0.0,-0.32,3.3,9.22,23
6.257759,-0.32,3.32,9.21,0.0,0.0,-0.0625,3.75,77.75,-10.1875,0.0,-1.875,-19.6875,0.985046,0.171326,0.016785,-6.1e-05,0.0,-0.01,-0.02,-0.32,3.3,9.22,23
6.268757,-0.33,3.29,9.2,0.0625,-0.125,0.0625,3.75,77.75,-10.1875,0.0,-1.875,-19.6875,0.985046,0.171326,0.016785,-6.1e-05,-0.01,0.0,0.01,-0.32,3.3,9.22,23
6.279755,-0.33,3.31,9.23,0.0,-0.0625,0.0,3.75,77.75,-10.1875,0.0,-1.875,-19.6875,0.985046,0.171326,0.016785,-6.1e-05,-0.01,-0.01,0.01,-0.32,3.3,9.22,23
6.290753,-0.33,3.29,9.23,-0.0625,-0.1875,0.0625,5.25,77.75,-14.875,0.0,-1.875,-19.6875,0.985046,0.171326,0.016785,-6.1e-05,0.0,0.0,0.0,-0.32,3.3,9.22,23
6.301751,-0.32,3.31,9.22,0.0,-0.125,-0.0625,5.25,77.75,-14.875,0.0,-1.875,-19.6875,0.985046,0.171326,0.016785,-6.1e-05,0.0,0.01,0.0,-0.32,3.3,9.22,23
6.312748,-0.32,3.32,9.22,-0.0625,0.125,-0.0625,5.25,77.75,-14.875,0.0,-1.875,-19.6875,0.985046,0.171326,0.016785,-6.1e-05,-0.01,0.0,-0.02,-0.32,3.3,9.22,23
6.323746,-0.33,3.3,9.19,-0.125,-0.0625,0.1875,5.25,77.75,-14.875,0.0,-1.875,-19.6875,0.985046,0.171326,0.016785,-6.1e-05,0.0,0.0,0.01,-0.32,3.3,9.22,23
6.334744,-0.32,3.31,9.24,-0.25,0.125,0.0,5.25,77.75,-14.875,0.0,-1.875,-19.6875,0.985046,0.171326,0.016785,-6.1e-05,0.0,0.01,0.0,-0.32,3.3,9.22,23
6.345742,-0.33,3.32,9.23,0.0625,0.125,-0.125,3.0,77.75,-10.5625,0.0,-1.875,-19.6875,0.985046,0.171326,0.016785,-6.1e-05,0.0,0.01,-0.02,-0.32,3.3,9.22,23
6.35674,-0.32,3.32,9.19,0.125,0.0625,-0.125,3.0,77.75,-10.5625,0.0,-1.875,-19.6875,0.985046,0.171326,0.016785,-6.1e-05,0.0,0.0,0.01,-0.32,3.3,9.22,23
6.367737,-0.33,3.3,9.24,0.125,-0.1875,0.0,3.0,77.75,-10.5625,0.0,-1.875,-19.6875,0.985046,0.171326,0.016785,-6.1e-05,0.0,0.0,0.0,-0.32,3.3,9.22,23
6.378735,-0.33,3.3,9.23,0.0625,0.0,-0.1875,3.0,77.75,-10.5625,0.0,-1.875,-19.6875,0.985046,0.171326,0.016785,-6.1e-05,0.0,-0.01,0.0,-0.32,3.3,9.22,23
6.389733,-0.32,3.29,9.21,0.1875,0.375,0.0,3.0,77.75,-10.5625,0.0,-1.875,-19.6875,0.985046,0.171326,0.016785,-6.1e-05,0.0,0.0,0.0,-0.32,3.3,9.22,23
6.400731,-0.32,3.31,9.22,0.0625,0.1875,-0.0625,3.375,76.6875,-11.0,0.0,-1.875,-19.6875,0.985046,0.171326,0.016785,-6.1e-05,0.0,-0.01,0.01,-0.32,3.3,9.22,23
6.411729,-0.33,3.29,9.24,-0.125,-0.125,-0.0625,3.375,76.6875,-11.0,0.0,-1.875,-19.6875,0.985046,0.171326,0.016785,-6.1e-05,0.0,0.0,0.0,-0.32,3.3,9.22,23
6.422727,-0.33,3.32,9.21,0.0625,0.0625,0.0,3.375,76.6875,-11.0,0.0,-1.875,-19.6875,0.985046,0.171326,0.016785,-6.1e-05,0.0,0.01,-0.01,-0.32,3.3,9.22,23
6.433724,-0.32,3.32,9.22,-0.1875,-0.0625,-0.0625,3.375,76.6875,-11.0,0.0,-1.875,-19.6875,0.985046,0.171326,0.016785,-6.1e-05,0.0,0.01,0.0,-0.32,3.3,9.22,23
6.444722,-0.32,3.32,9.22,-0.3125,-0.125,0.0,3.375,76.6875,-11.0,0.0,-1.875,-19.6875,0.985046,0.171326,0.016785,-6.1e-05,0.0,0.01,0.0,-0.32,3.3,9.22,23
6.45572,-0.33,3.3,9.22,0.0,0.125,0.0,3.375,79.25,-11.0,0.0,-1.875,-19.6875,0.985046,0.171326,0.016785,-6.1e-05,-0.01,0.01,0.03,-0.32,3.3,9.22,23
6.466718,-0.33,3.32,9.25,0.0625,-0.1875,-0.125,3.375,79.25,-11.0,0.0,-1.875,-19.6875,0.985046,0.171326,0.016785,-6.1e-05,-0.01,0.0,0.0,-0.32,3.3,9.22,23
6.477716,-0.33,3.31,9.22,0.0625,0.3125,-0.0625,3.375,79.25,-11.0,0.0,-1.875,-19.6875,0.985046,0.171326,0.016785,-6.1e-05,-0.01,0.03,-0.02,-0.32,3.3,9.22,23
6.488713,-0.33,3.34,9.2,-0.1875,-0.0625,-0.0625,3.375,79.25,-11.0,0.0,-1.875,-19.6875,0.985046,0.171326,0.016785,-6.1e-05,0.0,0.0,0.0,-0.32,3.3,9.22,23
6.499711,-0.32,3.31,9.22,-0.25,-0.125,-0.0625,2.5625,78.1875,-11.0,0.0,-1.875,-19.6875,0.985046,0.171326,0.016785,-6.1e-05,0.0,0.0,0.0,-0.32,3.3,9.22,23
6.510709,-0.33,3.31,9.23,-0.0625,-0.125,-0.1875,2.5625,78.1875,-11.0,0.0,-1.875,-19.6875,0.985046,0.171326,0.016785,-6.1e-05,0.0,0.0,0.01,-0.32,3.3,9.22,23
6.521707,-0.32,3.3,9.21,0.25,-0.125,-0.125,2.5625,78.1875,-11.0,0.0,-1.875,-19.6875,0.985046,0.171326,0.016785,-6.1e-05,0.0,0.0,0.0,-0.32,3.3,9.22,23
6.532705,-0.31,3.3,9.22,-0.125,0.0,0.0625,2.5625,78.1875,-11.0,0.0,-1.875,-19.6875,0.985046,0.171326,0.016785,-6.1e-05,0.0,0.01,0.01,-0.32,3.3,9.22,23
6.543703,-0.33,3.32,9.23,0.125,0.125,0.0,2.5625,78.1875,-11.0,0.0,-1.875,-19.6875,0.985046,0.171326,0.016785,-6.1e-05,0.0,0.01,0.01,-0.32,3.3,9.22,23
6.5547,-0.32,3.3,9.22,0.1875,0.0625,0.0,2.25,78.1875,-10.5625,0.0,-1.875,-19.6875,0.985046,0.171326,0.016785,-6.1e-05,0.0,0.01,0.0,-0.32,3.3,9.22,23
6.565698,-0.32,3.32,9.22,0.0625,0.1875,0.0,2.25,78.1875,-10.5625,0.0,-1.875,-19.6875,0.985046,0.171326,0.016785,-6.1e-05,0.0,0.02,0.0,-0.32,3.3,9.22,23
6.576696,-0.32,3.33,9.22,0.1875,0.1875,0.0625,2.25,78.1875,-10.5625,0.0,-1.875,-19.6875,0.985046,0.171326,0.016785,-6.1e-05,0.0,0.0,-0.02,-0.32,3.3,9.22,23
6.587694,-0.33,3.3,9.2,-0.125,0.0,-0.0625,2.25,78.1875,-10.5625,0.0,-1.875,-19.6875,0.985046,0.171326,0.016785,-6.1e-05,0.0,-0.01,-0.01,-0.32,3.3,9.22,23
6.598692,-0.33,3.29,9.21,-0.0625,0.125,-0.0625,2.25,78.1875,-11.0,0.0,-1.875,-19.6875,0.985046,0.171326,0.016785,-6.1e-05,0.0,0.0,0.01,-0.32,3.3,9.22,23
6.609689,-0.33,3.3,9.23,-0.125,0.0,-0.0625,2.25,78.1875,-11.0,0.0,-1.875,-19.6875,0.985046,0.171326,0.016785,-6.1e-05,0.0,0.0,0.0,-0.32,3.3,9.22,23
6.620687,-0.33,3.3,9.21,0.0,-0.1875,-0.125,2.25,78.1875,-11.0,0.0,-1.875,-19.6875,0.985046,0.171326,0.016785,-6.1e-05,-0.01,-0.01,-0.02,-0.32,3.3,9.22,23
6.631685,-0.33,3.29,9.19,-0.1875,0.0,0.125,2.25,78.1875,-11.0,0.0,-1.875,-19.6875,0.985046,0.171326,0.016785,-6.1e-05,-0.02,0.01,0.0,-0.32,3.3,9.22,23
6.642683,-0.34,3.32,9.22,0.0,0.0,0.0,2.25,78.1875,-11.0,0.0,-1.875,-19.6875,0.985046,0.171326,0.016785,-6.1e-05,-0.02,0.01,0.0,-0.32,3.3,9.22,23
6.653681,-0.33,3.32,9.21,0.1875,0.0,-0.0625,3.0,78.875,-12.1875,0.0,-1.875,-19.6875,0.985046,0.171326,0.016785,-6.1e-05,0.0,0.0,0.0,-0.32,3.3,9.22,23
6.664679,-0.32,3.31,9.21,0.125,-0.0625,0.0625,3.0,78.875,-12.1875,0.0,-1.875,-19.6875,0.985046,0.171326,0.016785,-6.1e-05,0.0,-0.01,0.0,-0.32,3.3,9.22,23
6.675676,-0.32,3.29,9.23,0.0,0.125,-0.0625,3.0,78.875,-12.1875,0.0,-1.875,-19.6875,0.985046,0.171326,0.016785,-6.1e-05,0.0,0.0,-0.01,-0.32,3.3,9.22,23
6.686674,-0.32,3.3,9.21,0.125,-0.0625,0.0625,3.0,78.875,-12.1875,0.0,-1.875,-19.6875,0.985046,0.171326,0.016785,-6.1e-05,0.0,0.0,0.01,-0.32,3.3,9.22,23
6.697672,-0.32,3.31,9.24,0.375,0.0625,0.0625,3.0,78.875,-12.1875,0.0,-1.875,-19.6875,0.985046,0.171326,0.016785,-6.1e-05,0.0,0.0,0.01,-0.32,3.3,9.22,23
6.70867,-0.32,3.3,9.25,-0.125,0.0,0.0,1.875,77.75,-11.75,0.0,-1.875,-19.6875,0.985046,0.171326,0.016785,-6.1e-05,0.0,0.0,-0.01,-0.32,3.3,9.22,23
6.719668,-0.33,3.31,9.21,0.0,0.1875,-0.0625,1.875,77.75,-11.75,0.0,-1.875,-19.6875,0.985046,0.171326,0.016785,-6.1e-05,0.0,0.0,-0.01,-0.32,3.3,9.22,23
6.730665,-0.33,3.31,9.2,0.0,-0.25,-0.0625,1.875,77.75,-11.75,0.0,-1.875,-19.6875,0.985046,0.171326,0.016785,-6.1e-05,-0.01,0.0,0.0,-0.32,3.3,9.22,23
6.741663,-0.33,3.3,9.22,-0.1875,0.0,-0.125,1.875,77.75,-11.75,0.0,-1.875,-19.6875,0.985046,0.171326,0.016785,-6.1e-05,0.0,0.0,0.0,-0.32,3.3,9.22,23
6.752661,-0.32,3.3,9.22,-0.0625,-0.0625,0.125,1.0625,77.375,-11.75,0.0,-1.875,-19.6875,0.985046,0.171326,0.016785,-6.1e-05,0.0,0.01,0.0,-0.32,3.3,9.22,23
6.763659,-0.32,3.32,9.22,-0.0625,-0.1875,0.0625,1.0625,77.375,-11.75,0.0,-1.875,-19.6875,0.985046,0.171326,0.016785,-6.1e-05,-0.01,0.01,0.0,-0.32,3.3,9.22,23
6.774657,-0.33,3.32,9.22,0.125,0.0,-0.125,1.0625,77.375,-11.75,0.0,-1.875,-19.6875,0.985046,0.171326,0.016785,-6.1e-05,0.01,0.01,0.01,-0.32,3.3,9.22,23
6.785655,-0.31,3.32,9.24,0.0625,-0.125,-0.125,1.0625,77.375,-11.75,0.0,-1.875,-19.6875,0.985046,0.171326,0.016785,-6.1e-05,0.0,0.0,0.0,-0.32,3.3,9.22,23
6.796652,-0.32,3.3,9.21,0.0625,0.25,0.125,1.0625,77.375,-11.75,0.0,-1.875,-19.6875,0.985046,0.171326,0.016785,-6.1e-05,0.0,0.0,0.0,-0.32,3.3,9.22,23
6.80765,-0.33,3.3,9.21,-0.125,-0.0625,-0.0625,2.5625,78.1875,-11.375,0.0,-1.875,-19.6875,0.985046,0.171326,0.016785,-6.1e-05,0.01,0.0,0.0,-0.32,3.3,9.22,23
6.818648,-0.32,3.31,9.23,-0.0625,-0.375,0.0,2.5625,78.1875,-11.375,0.0,-1.875,-19.6875,0.985046,0.171326,0.016785,-6.1e-05,0.0,0.0,0.01,-0.32,3.3,9.22,23
6.829646,-0.33,3.31,9.19,0.0625,0.0,0.0,2.5625,78.1875,-11.375,0.0,-1.875,-19.6875,0.985046,0.171326,0.016785,-6.1e-05,0.0,-0.01,0.0,-0.32,3.3,9.22,23
6.840644,-0.32,3.29,9.21,-0.0625,-0.1875,-0.125,2.5625,78.1875,-11.375,0.0,-1.875,-19.6875,0.985046,0.171326,0.016785,-6.1e-05,0.0,0.0,-0.02,-0.32,3.3,9.22,23
6.851641,-0.32,3.31,9.2,-0.1875,-0.125,0.0625,2.5625,78.1875,-11.375,0.0,-1.875,-19.6875,0.985046,0.171326,0.016785,-6.1e-05,0.0,0.0,-0.02,-0.32,3.3,9.22,23
6.862639,-0.33,3.32,9.22,-0.0625,-0.125,0.0,2.25,77.375,-11.75,0.0,-1.875,-19.6875,0.985046,0.171326,0.016785,-6.1e-05,0.0,0.0,0.0,-0.32,3.3,9.22,23
6.873637,-0.31,3.31,9.21,-0.1875,-0.125,0.0,2.25,77.375,-11.75,0.0,-1.875,-19.6875,0.985046,0.171326,0.016785,-6.1e-05,0.0,-0.01,0.0,-0.32,3.3,9.22,23
6.884635,-0.32,3.29,9.23,-0.0625,-0.125,0.0,2.25,77.375,-11.75,0.0,-1.875,-19.6875,0.985046,0.171326,0.016785,-6.1e-05,-0.01,-0.01,0.0,-0.32,3.3,9.22,23
6.895633,-0.33,3.29,9.21,0.0,-0.3125,-0.0625,2.25,77.375,-11.75,0.0,-1.875,-19.6875,0.985046,0.171326,0.016785,-6.1e-05,-0.02,0.01,0.02,-0.32,3.3,9.22,23
6.906631,-0.34,3.32,9.24,0.0625,-0.1875,-0.0625,4.5,76.25,-14.875,0.0,-1.875,-19.6875,0.985046,0.171326,0.016785,-6.1e-05,0.0,0.01,0.0,-0.32,3.3,9.22,23
6.917628,-0.32,3.32,9.22,0.0,0.0,0.0625,4.5,76.25,-14.875,0.0,-1.875,-19.6875,0.985046,0.171326,0.016785,-6.1e-05,0.0,0.0,0.0,-0.32,3.3,9.22,23
6.928626,-0.32,3.29,9.21,-0.125,-0.25,-0.125,4.5,76.25,-14.875,0.0,-1.875,-19.6875,0.985046,0.171326,0.016785,-6.1e-05,0.0,-0.01,0.0,-0.32,3.3,9.22,23
6.939624,-0.33,3.32,9.21,0.0625,-0.0625,-0.125,4.5,76.25,-14.875,0.0,-1.875,-19.6875,0.985046,0.171326,0.016785,-6.1e-05,0.0,0.0,0.01,-0.32,3.3,9.22,23
6.950622,-0.32,3.3,9.24,-0.125,-0.125,0.0625,4.5,76.25,-14.875,0.0,-1.875,-19.6875,0.985046,0.171326,0.016785,-6.1e-05,0.0,0.0,0.01,-0.32,3.3,9.22,23
6.96162,-0.33,3.32,9.2,-0.1875,-0.3125,0.0625,4.0625,77.75,-9.0,0.0,-1.875,-19.6875,0.985046,0.171326,0.016785,-6.1e-05,0.0,0.0,0.0,-0.32,3.3,9.22,23
6.972617,-0.32,3.3,9.22,0.0625,-0.0625,0.0,4.0625,77.75,-9.0,0.0,-1.875,-19.6875,0.985046,0.171326,0.016785,-6.1e-05,0.0,0.0,0.0,-0.32,3.3,9.22,23
6.983615,-0.32,3.31,9.22,-0.0625,0.0625,-0.0625,4.0625,77.75,-9.0,0.0,-1.875,-19.6875,0.985046,0.171326,0.016785,-6.1e-05,0.0,0.02,0.0,-0.32,3.3,9.22,23
6.994613,-0.33,3.33,9.22,-0.25,0.0,-0.125,4.0625,77.75,-9.0,0.0,-1.875,-19.6875,0.985046,0.171326,0.016785,-6.1e-05,0.0,0.01,0.01,-0.32,3.3,9.22,23
7.005611,-0.32,3.32,9.23,-0.0625,0.25,-0.125,3.375,77.75,-10.1875,0.0,-1.875,-19.6875,0.985046,0.171326,0.016785,-6.1e-05,0.0,-0.01,0.01,-0.32,3.3,9.22,23
7.016609,-0.31,3.31,9.22,0.0625,0.0,-0.0625,3.375,77.75,-10.1875,0.0,-1.875,-19.6875,0.985046,0.171326,0.016785,-6.1e-05,0.0,0.0,0.0,-0.32,3.3,9.22,23
7.027607,-0.32,3.31,9.19,-0.0625,0.0,-0.125,3.375,77.75,-10.1875,0.0,-1.875,-19.6875,0.985046,0.171326,0.016785,-6.1e-05,0.0,0.01,0.01,-0.32,3.3,9.22,23
7.038604,-0.32,3.32,9.24,-0.1875,-0.0625,0.0,3.375,77.75,-10.1875,0.0,-1.875,-19.6875,0.985046,0.171326,0.016785,-6.1e-05,0.0,-0.01,0.0,-0.32,3.3,9.22,23
7.049602,-0.33,3.29,9.23,-0.0625,-0.0625,0.0,3.375,77.75,-10.1875,0.0,-1.875,-19.6875,0.985046,0.171326,0.016785,-6.1e-05,0.0,-0.01,0.0,-0.32,3.3,9.22,23
7.0606,-0.32,3.3,9.22,0.125,0.1875,-0.0625,3.0,77.75,-9.75,0.0,-1.875,-19.6875,0.985046,0.171326,0.016785,-6.1e-05,0.0,0.0,0.0,-0.32,3.3,9.22,23
7.071598,-0.32,3.3,9.22,-0.125,0.0625,0.0,3.0,77.75,-9.75,0.0,-1.875,-19.6875,0.985046,0.171326,0.016785,-6.1e-05,0.0,0.01,-0.01,-0.32,3.3,9.22,23
7.082596,-0.33,3.32,9.21,0.0,0.125,0.0,3.0,77.75,-9.75,0.0,-1.875,-19.6875,0.985046,0.171326,0.016785,-6.1e-05,0.0,0.02,0.0,-0.32,3.3,9.22,23
7.093593,-0.32,3.33,9.22,0.0,0.0625,0.0,3.0,77.75,-9.75,0.0,-1.875,-19.6875,0.985046,0.171326,0.016785,-6.1e-05,0.0,-0.02,0.0,-0.32,3.3,9.22,23
7.104591,-0.32,3.28,9.21,0.0,-0.125,0.0,1.875,77.75,-11.75,0.0,-1.875,-19.6875,0.985046,0.171326,0.016785,-6.1e-05,0.0,0.0,0.01,-0.32,3.3,9.22,23
7.115589,-0.31,3.3,9.24,0.0625,0.0,0.0,1.875,77.75,-11.75,0.0,-1.875,-19.6875,0.985046,0.171326,0.016785,-6.1e-05,0.0,0.0,0.0,-0.32,3.3,9.22,23
7.126587,-0.32,3.31,9.22,0.0625,-0.0625,0.0,1.875,77.75,-11.75,0.0,-1.875,-19.6875,0.985046,0.171326,0.016785,-6.1e-05,-0.01,0.0,0.0,-0.32,3.3,9.22,23
7.137585,-0.33,3.3,9.22,-0.125,-0.1875,0.0,1.875,77.75,-11.75,0.0,-1.875,-19.6875,0.985046,0.171326,0.016785,-6.1e-05,0.0,0.0,0.0,-0.32,3.3,9.22,23
7.148583,-0.33,3.31,9.21,0.1875,-0.125,0.0,1.875,77.75,-11.75,0.0,-1.875,-19.6875,0.985046,0.171326,0.016785,-6.1e-05,0.0,0.0,0.0,-0.32,3.3,9.22,23
7.15958,-0.32,3.3,9.22,-0.125,0.125,0.0625,4.5,77.375,-14.875,0.0,-1.875,-19.6875,0.985046,0.171326,0.016785,-6.1e-05,0.0,0.0,0.0,-0.32,3.3,9.22,23
7.170578,-0.31,3.3,9.24,-0.1875,-0.375,0.0,4.5,77.375,-14.875,0.0,-1.875,-19.6875,0.985046,0.171326,0.016785,-6.1e-05,0.0,0.0,0.01,-0.32,3.3,9.22,23
7.181576,-0.32,3.31,9.2,-0.0625,0.375,-0.125,4.5,77.375,-14.875,0.0,-1.875,-19.6875,0.985046,0.171326,0.016785,-6.1e-05,-0.01,0.0,-0.01,-0.32,3.3,9.22,23
7.192574,-0.33,3.3,9.21,0.25,0.25,0.0,4.5,77.375,-14.875,0.0,-1.875,-19.6875,0.985046,0.171326,0.016785,-6.1e-05,-0.01,0.01,0.0,-0.32,3.3,9.22,23
7.203572,-0.33,3.32,9.22,-0.0625,0.125,0.0,4.5,77.375,-14.875,0.0,-1.875,-19.6875,0.985046,0.171326,0.016785,-6.1e-05,-0.01,0.01,0.0,-0.32,3.3,9.22,23
7.21457,-0.32,3.3,9.22,-0.0625,-0.125,0.0625,3.375,77.375,-15.25,0.0,-1.875,-19.6875,0.985046,0.171326,0.016785,-6.1e-05,0.0,0.0,0.0,-0.32,3.3,9.22,23
7.225567,-0.33,3.3,9.22,0.0,0.1875,-0.125,3.375,77.375,-15.25,0.0,-1.875,-19.6875,0.985046,0.171326,0.016785,-6.1e-05,0.0,0.0,-0.02,-0.32,3.3,9.22,23
7.236565,-0.32,3.3,9.2,0.0,0.0625,-0.0625,3.375,77.375,-15.25,0.0,-1.875,-19.6875,0.985046,0.171326,0.016785,-6.1e-05,0.0,0.0,-0.01,-0.32,3.3,9.22,23
7.247563,-0.32,3.3,9.21,-0.1875,-0.1875,0.0,3.375,77.375,-15.25,0.0,-1.875,-19.6875,0.985046,0.171326,0.016785,-6.1e-05,0.0,-0.02,0.0,-0.32,3.3,9.22,23
7.258561,-0.33,3.28,9.21,0.0625,-0.125,-0.0625,4.875,77.0625,-16.875,0.0,-1.875,-19.6875,0.985046,0.171326,0.016785,-6.1e-05,0.0,0.01,0.0,-0.32,3.3,9.22,23
7.269559,-0.32,3.31,9.22,0.0625,-0.1875,0.0,4.875,77.0625,-16.875,0.0,-1.875,-19.6875,0.985046,0.171326,0.016785,-6.1e-05,0.0,0.0,0.0,-0.32,3.3,9.22,23
7.280556,-0.33,3.32,9.19,0.0625,-0.125,0.0,4.875,77.0625,-16.875,0.0,-1.875,-19.6875,0.985046,0.171326,0.016785,-6.1e-05,-0.01,-0.01,0.0,-0.32,3.3,9.22,23
7.291554,-0.33,3.29,9.22,-0.125,-0.125,0.0,4.875,77.0625,-16.875,0.0,-1.875,-19.6875,0.985046,0.171326,0.016785,-6.1e-05,0.0,0.0,0.01,-0.32,3.3,9.22,23
7.302552,-0.32,3.31,9.23,0.0,0.0,0.0,4.875,77.0625,-16.875,0.0,-1.875,-19.6875,0.985046,0.171326,0.016785,-6.1e-05,0.0,0.0,0.01,-0.32,3.3,9.22,23
7.31355,-0.33,3.3,9.24,0.0,0.0,0.0,7.5,76.6875,-15.6875,0.0,-1.875,-19.6875,0.985046,0.171326,0.016785,-6.1e-05,0.0,0.0,-0.01,-0.32,3.3,9.22,23
7.324548,-0.33,3.3,9.21,-0.0625,-0.0625,0.0,7.5,76.6875,-15.6875,0.0,-1.875,-19.6875,0.985046,0.171326,0.016785,-6.1e-05,0.0,0.01,-0.01,-0.32,3.3,9.22,23
7.335546,-0.32,3.32,9.2,0.1875,0.0625,0.0625,7.5,76.6875,-15.6875,0.0,-1.875,-19.6875,0.985046,0.171326,0.016785,-6.1e-05,0.0,0.01,-0.03,-0.32,3.3,9.22,23
7.346543,-0.33,3.32,9.18,0.25,-0.0625,0.0,7.5,76.6875,-15.6875,0.0,-1.875,-19.6875,0.985046,0.171326,0.016785,-6.1e-05,0.0,0.0,0.0,-0.32,3.3,9.22,23
7.357541,-0.33,3.31,9.22,0.0,0.1875,0.0625,5.5625,77.0625,-15.6875,0.0,-1.875,-19.6875,0.985046,0.171326,0.016785,-6.1e-05,0.0,0.01,0.01,-0.32,3.3,9.22,23
7.368539,-0.33,3.28,9.2,0.0,0.0,-0.0625,5.5625,77.0625,-15.6875,0.0,-1.875,-19.6875,0.985046,0.171326,0.016785,-6.1e-05,-0.01,-0.02,-0.02,-0.32,3.3,9.22,23
7.379537,-0.32,3.29,9.21,0.0,-0.0625,-0.0625,5.5625,77.0625,-15.6875,0.0,-1.875,-19.6875,0.985046,0.171326,0.016785,-6.1e-05,-0.02,0.0,-0.02,-0.32,3.3,9.22,23
7.390535,-0.34,3.31,9.19,-0.0625,-0.1875,-0.0625,5.5625,77.0625,-15.6875,0.0,-1.875,-19.6875,0.985046,0.171326,0.016785,-6.1e-05,0.0,0.0,0.0,-0.32,3.3,9.22,23
7.401532,-0.31,3.3,9.22,0.0,-0.0625,0.0,5.5625,77.0625,-15.6875,0.0,-1.875,-19.6875,0.985046,0.171326,0.016785,-6.1e-05,0.0,0.0,0.0,-0.32,3.3,9.22,23
7.41253,-0.31,3.3,9.22,0.0,-0.0625,0.0,2.25,77.75,-11.0,0.0,-1.875,-19.6875,0.985046,0.171326,0.016785,-6.1e-05,0.0,-0.01,-0.01,-0.32,3.3,9.22,23
7.423528,-0.33,3.29,9.2,0.125,-0.0625,-0.0625,2.25,77.75,-11.0,0.0,-1.875,-19.6875,0.985046,0.171326,0.016785,-6.1e-05,0.0,0.0,0.0,-0.32,3.3,9.22,23
7.434526,-0.32,3.3,9.22,0.125,-0.0625,0.0,2.25,77.75,-11.0,0.0,-1.875,-19.6875,0.985046,0.171326,0.016785,-6.1e-05,0.0,0.0,0.01,-0.32,3.3,9.22,23
7.445524,-0.32,3.31,9.24,0.125,0.125,0.0625,2.25,77.75,-11.0,0.0,-1.875,-19.6875,0.985046,0.171326,0.016785,-6.1e-05,0.0,0.0,0.0,-0.32,3.3,9.22,23
7.456522,-0.33,3.31,9.22,0.0,0.0625,-0.125,1.875,77.75,-12.1875,0.0,-1.875,-19.6875,0.985046,0.171326,0.016785,-6.1e-05,0.0,0.0,0.01,-0.32,3.3,9.22,23
7.467519,-0.32,3.29,9.22,-0.1875,0.0,-0.0625,1.875,77.75,-12.1875,0.0,-1.875,-19.6875,0.985046,0.171326,0.016785,-6.1e-05,0.0,-0.01,0.0,-0.32,3.3,9.22,23
7.478517,-0.33,3.31,9.2,0.0625,0.3125,-0.1875,1.875,77.75,-12.1875,0.0,-1.875,-19.6875,0.985046,0.171326,0.016785,-6.1e-05,0.0,0.0,-0.02,-0.32,3.3,9.22,23
7.489515,-0.32,3.31,9.2,-0.1875,0.25,-0.0625,1.875,77.75,-12.1875,0.0,-1.875,-19.6875,0.985046,0.171326,0.016785,-6.1e-05,0.0,0.0,0.0,-0.32,3.3,9.22,23
7.500513,-0.32,3.3,9.22,0.0625,0.125,-0.0625,1.875,77.75,-12.1875,0.0,-1.875,-19.6875,0.985046,0.171326,0.016785,-6.1e-05,0.0,0.0,0.0,-0.32,3.3,9.22,23
7.511511,-0.33,3.28,9.23,0.0,0.125,-0.1875,3.75,77.0625,-16.5,0.0,-1.875,-19.6875,0.985046,0.171326,0.016785,-6.1e-05,0.0,0.0,0.01,-0.32,3.3,9.22,23
7.522508,-0.32,3.31,9.24,0.0625,0.0625,-0.0625,3.75,77.0625,-16.5,0.0,-1.875,-19.6875,0.985046,0.171326,0.016785,-6.1e-05,0.0,-0.01,0.0,-0.32,3.3,9.22,23
7.533506,-0.32,3.29,9.22,0.125,0.0,-0.0625,3.75,77.0625,-16.5,0.0,-1.875,-19.6875,0.985046,0.171326,0.016785,-6.1e-05,0.0,-0.02,0.0,-0.32,3.3,9.22,23
7.544504,-0.32,3.28,9.22,0.0,-0.0625,0.0625,3.75,77.0625,-16.5,0.0,-1.875,-19.6875,0.985046,0.171326,0.016785,-6.1e-05,-0.01,0.0,0.0,-0.32,3.3,9.22,23
7.555502,-0.33,3.31,9.22,-0.1875,0.125,-0.0625,3.0,78.875,-11.0,0.0,-1.875,-19.6875,0.985046,0.171326,0.016785,-6.1e-05,0.0,0.0,0.0,-0.32,3.3,9.22,23
7.5665,-0.33,3.3,9.22,-0.125,0.0625,0.0,3.0,78.875,-11.0,0.0,-1.875,-19.6875,0.985046,0.171326,0.016785,-6.1e-05,-0.01,0.0,0.0,-0.32,3.3,9.22,23
7.577498,-0.32,3.31,9.21,0.0,-0.0625,-0.125,3.0,78.875,-11.0,0.0,-1.875,-19.6875,0.985046,0.171326,0.016785,-6.1e-05,0.0,-0.01,-0.01,-0.32,3.3,9.22,23
7.588495,-0.32,3.29,9.21,-0.0625,0.0625,0.0,3.0,78.875,-11.0,0.0,-1.875,-19.6875,0.985046,0.171326,0.016785,-6.1e-05,0.0,-0.02,0.0,-0.32,3.3,9.22,23
7.599493,-0.33,3.28,9.22,0.0,0.125,0.0625,3.0,78.875,-11.0,0.0,-1.875,-19.6875,0.985046,0.171326,0.016785,-6.1e-05,0.0,-0.02,0.0,-0.32,3.3,9.22,23
7.610491,-0.33,3.29,9.2,0.0625,0.3125,0.125,1.5,77.75,-11.75,0.0,-1.875,-19.6875,0.985046,0.171326,0.016785,-6.1e-05,0.0,0.01,-0.02,-0.32,3.3,9.22,23
7.621489,-0.32,3.32,9.2,-0.125,-0.25,0.0,1.5,77.75,-11.75,0.0,-1.875,-19.6875,0.985046,0.171326,0.016785,-6.1e-05,0.0,0.0,0.0,-0.32,3.3,9.22,23
7.632487,-0.33,3.3,9.23,-0.25,-0.1875,-0.0625,1.5,77.75,-11.75,0.0,-1.875,-19.6875,0.985046,0.171326,0.016785,-6.1e-05,-0.01,0.0,0.0,-0.32,3.3,9.22,23
7.643484,-0.33,3.31,9.22,-0.0625,0.125,-0.1875,1.5,77.75,-11.75,0.0,-1.875,-19.6875,0.985046,0.171326,0.016785,-6.1e-05,0.0,-0.01,0.0,-0.32,3.3,9.22,23
7.654482,-0.31,3.29,9.23,-0.0625,-0.0625,0.0625,3.0,76.6875,-11.0,0.0,-1.875,-19.6875,0.985046,0.171326,0.016785,-6.1e-05,-0.01,0.01,0.0,-0.32,3.3,9.22,23
7.66548,-0.33,3.32,9.22,0.0,-0.0625,-0.0625,3.0,76.6875,-11.0,0.0,-1.875,-19.6875,0.985046,0.171326,0.016785,-6.1e-05,0.0,0.0,0.0,-0.32,3.3,9.22,23
7.676478,-0.32,3.3,9.22,-0.0625,0.0,-0.0625,3.0,76.6875,-11.0,0.0,-1.875,-19.6875,0.985046,0.171326,0.016785,-6.1e-05,0.0,0.0,-0.02,-0.32,3.3,9.22,23
7.687476,-0.32,3.31,9.19,-0.125,0.0,-0.125,3.0,76.6875,-11.0,0.0,-1.875,-19.6875,0.985046,0.171326,0.016785,-6.1e-05,0.0,0.0,0.0,-0.32,3.3,9.22,23
7.698474,-0.31,3.3,9.23,-0.125,-0.0625,0.0,3.0,76.6875,-11.0,0.0,-1.875,-19.6875,0.985046,0.171326,0.016785,-6.1e-05,0.0,0.0,0.0,-0.32,3.3,9.22,23
7.709471,-0.33,3.3,9.22,-0.1875,-0.0625,0.0,3.375,78.1875,-11.0,0.0,-1.875,-19.6875,0.985046,0.171326,0.016785,-6.1e-05,0.0,-0.01,0.01,-0.32,3.3,9.22,23
7.720469,-0.32,3.3,9.21,0.125,0.0625,-0.0625,3.375,78.1875,-11.0,0.0,-1.875,-19.6875,0.985046,0.171326,0.016785,-6.1e-05,0.0,0.0,-0.01,-0.32,3.3,9.22,23
7.731467,-0.32,3.31,9.22,-0.0625,0.0625,-0.0625,3.375,78.1875,-11.0,0.0,-1.875,-19.6875,0.985046,0.171326,0.016785,-6.1e-05,0.0,-0.02,0.0,-0.32,3.3,9.22,23
7.742465,-0.32,3.28,9.22,-0.0625,-0.125,0.0625,3.375,78.1875,-11.0,0.0,-1.875,-19.6875,0.985046,0.171326,0.016785,-6.1e-05,0.0,0.0,0.01,-0.32,3.3,9.22,23
7.753463,-0.32,3.3,9.24,-0.0625,0.0625,-0.0625,3.375,78.1875,-11.0,0.0,-1.875,-19.6875,0.985046,0.171326,0.016785,-6.1e-05,0.0,0.0,0.01,-0.32,3.3,9.22,23
7.76446,-0.33,3.32,9.23,-0.25,0.0,0.0625,3.375,78.5625,-11.75,0.0,-1.875,-19.6875,0.985046,0.171326,0.016785,-6.1e-05,0.0,0.0,0.0,-0.32,3.3,9.22,23
7.775458,-0.33,3.31,9.22,0.25,0.0625,0.0625,3.375,78.5625,-11.75,0.0,-1.875,-19.6875,0.985046,0.171326,0.016785,-6.1e-05,0.0,0.0,0.0,-0.32,3.3,9.22,23
7.786456,-0.32,3.31,9.21,-0.0625,-0.1875,-0.0625,3.375,78.5625,-11.75,0.0,-1.875,-19.6875,0.985046,0.171326,0.016785,-6.1e-05,-0.01,-0.02,-0.01,-0.32,3.3,9.22,23
7.797454,-0.33,3.28,9.2,0.1875,0.0,-0.0625,3.375,78.5625,-11.75,0.0,-1.875,-19.6875,0.985046,0.171326,0.016785,-6.1e-05,-0.01,-0.01,0.02,-0.32,3.3,9.22,23
7.808452,-0.33,3.29,9.24,0.0625,0.125,-0.0625,3.0,76.6875,-11.375,0.0,-1.875,-19.6875,0.985046,0.171326,0.016785,-6.1e-05,0.01,0.01,0.0,-0.32,3.3,9.22,23
7.81945,-0.33,3.28,9.21,0.125,0.0625,0.0625,3.0,76.6875,-11.375,0.0,-1.875,-19.6875,0.985046,0.171326,0.016785,-6.1e-05,0.0,-0.02,-0.01,-0.32,3.3,9.22,23
7.830447,-0.32,3.29,9.2,-0.125,0.25,-0.0625,3.0,76.6875,-11.375,0.0,-1.875,-19.6875,0.985046,0.171326,0.016785,-6.1e-05,0.0,0.0,0.0,-0.32,3.3,9.22,23
7.841445,-0.33,3.31,9.21,-0.0625,0.0,0.0625,3.0,76.6875,-11.375,0.0,-1.875,-19.6875,0.985046,0.171326,0.016785,-6.1e-05,0.0,0.0,0.0,-0.32,3.3,9.22,23
7.852443,-0.32,3.3,9.21,0.0,0.0625,-0.0625,3.0,76.6875,-11.375,0.0,-1.875,-19.6875,0.985046,0.171326,0.016785,-6.1e-05,0.0,0.0,0.0,-0.32,3.3,9.22,23
7.863441,-0.32,3.31,9.23,-0.125,-0.1875,0.0625,3.375,77.75,-11.375,0.0,-1.875,-19.6875,0.985046,0.171326,0.016785,-6.1e-05,0.0,0.0,-0.01,-0.32,3.3,9.22,23
7.874439,-0.33,3.31,9.21,-0.0625,0.125,0.0,3.375,77.75,-11.375,0.0,-1.875,-19.6875,0.985046,0.171326,0.016785,-6.1e-05,0.0,-0.01,0.0,-0.32,3.3,9.22,23
7.885436,-0.33,3.29,9.22,-0.0625,0.0625,0.0,3.375,77.75,-11.375,0.0,-1.875,-19.6875,0.985046,0.171326,0.016785,-6.1e-05,0.0,-0.01,0.0,-0.32,3.3,9.22,23
7.896434,-0.33,3.29,9.22,-0.125,-0.0625,-0.1875,3.375,77.75,-11.375,0.0,-1.875,-19.6875,0.985046,0.171326,0.016785,-6.1e-05,0.0,0.03,0.0,-0.32,3.3,9.22,23
7.907432,-0.32,3.34,9.21,-0.0625,-0.3125,-0.0625,0.375,77.0625,-11.375,0.0,-1.875,-19.6875,0.985046,0.171326,0.016785,-6.1e-05,0.0,0.01,0.0,-0.32,3.3,9.22,23
7.91843,-0.33,3.29,9.21,-0.125,-0.25,-0.0625,0.375,77.0625,-11.375,0.0,-1.875,-19.6875,0.985046,0.171326,0.016785,-6.1e-05,0.0,-0.01,0.0,-0.32,3.3,9.22,23
7.929428,-0.33,3.32,9.22,-0.25,0.0625,0.0,0.375,77.0625,-11.375,0.0,-1.875,-19.6875,0.985046,0.171326,0.016785,-6.1e-05,0.0,-0.01,-0.01,-0.32,3.3,9.22,23
7.940426,-0.33,3.29,9.21,0.0625,0.0625,-0.0625,0.375,77.0625,-11.375,0.0,-1.875,-19.6875,0.985046,0.171326,0.016785,-6.1e-05,-0.01,0.0,0.0,-0.32,3.3,9.22,23
7.951423,-0.33,3.3,9.21,-0.0625,-0.125,0.0625,0.375,77.0625,-11.375,0.0,-1.875,-19.6875,0.985046,0.171326,0.016785,-6.1e-05,-0.01,0.0,0.0,-0.32,3.3,9.22,23
7.962421,-0.32,3.31,9.19,0.0,-0.0625,-0.125,1.0625,78.5625,-10.5625,0.0,-1.875,-19.6875,0.985046,0.171326,0.016785,-6.1e-05,0.0,0.0,0.0,-0.32,3.3,9.22,23
7.973419,-0.32,3.3,9.22,0.0625,-0.0625,-0.0625,1.0625,78.5625,-10.5625,0.0,-1.875,-19.6875,0.985046,0.171326,0.016785,-6.1e-05,0.0,-0.01,-0.02,-0.32,3.3,9.22,23
7.984417,-0.32,3.29,9.2,-0.0625,-0.0625,0.125,1.0625,78.5625,-10.5625,0.0,-1.875,-19.6875,0.985046,0.171326,0.016785,-6.1e-05,0.0,-0.01,0.0,-0.32,3.3,9.22,23
7.995415,-0.33,3.29,9.22,0.0625,-0.0625,-0.0625,1.0625,78.5625,-10.5625,0.0,-1.875,-19.6875,0.985046,0.171326,0.016785,-6.1e-05,-0.02,0.0,0.0,-0.32,3.3,9.22,23
8.006413,-0.34,3.3,9.22,-0.0625,-0.0625,0.0,1.0625,77.75,-11.375,0.0,-1.875,-19.6875,0.985046,0.171326,0.016785,-6.1e-05,0.0,0.0,0.04,-0.32,3.3,9.22,23
8.01741,-0.32,3.32,9.22,-0.0625,0.0,0.0625,1.0625,77.75,-11.375,0.0,-1.875,-19.6875,0.985046,0.171326,0.016785,-6.1e-05,0.0,0.01,0.0,-0.32,3.3,9.22,23
8.028408,-0.32,3.29,9.2,-0.0625,-0.0625,-0.125,1.0625,77.75,-11.375,0.0,-1.875,-19.6875,0.985046,0.171326,0.016785,-6.1e-05,-0.01,0.0,0.0,-0.32,3.3,9.22,23
8.039406,-0.33,3.31,9.22,0.0,0.0,0.0,1.0625,77.75,-11.375,0.0,-1.875,-19.6875,0.985046,0.171326,0.016785,-6.1e-05,0.0,-0.01,0.0,-0.32,3.3,9.22,23
8.050404,-0.33,3.29,9.22,0.0,0.25,0.125,1.0625,77.75,-11.375,0.0,-1.875,-19.6875,0.985046,0.171326,0.016785,-6.1e-05,0.0,-0.01,0.0,-0.32,3.3,9.22,23
8.061402,-0.33,3.29,9.22,0.0,0.0,0.0,2.5625,78.1875,-11.0,0.0,-1.875,-19.6875,0.985046,0.171326,0.016785,-6.1e-05,0.0,0.01,-0.04,-0.32,3.3,9.22,23
8.072399,-0.32,3.32,9.18,-0.125,0.0,-0.0625,2.5625,78.1875,-11.0,0.0,-1.875,-19.6875,0.985046,0.171326,0.016785,-6.1e-05,0.0,0.02,-0.03,-0.32,3.3,9.22,23
8.083397,-0.31,3.33,9.19,-0.25,-0.1875,-0.125,2.5625,78.1875,-11.0,0.0,-1.875,-19.6875,0.985046,0.171326,0.016785,-6.1e-05,0.0,0.0,-0.01,-0.32,3.3,9.22,23
8.094395,-0.33,3.31,9.2,0.0625,-0.3125,-0.0625,2.5625,78.1875,-11.0,0.0,-1.875,-19.6875,0.985046,0.171326,0.016785,-6.1e-05,0.0,0.0,0.0,-0.32,3.3,9.22,23
8.105393,-0.33,3.31,9.22,0.0625,0.125,0.0625,2.5625,77.0625,-15.25,0.0,-1.875,-19.6875,0.985046,0.171326,0.016785,-6.1e-05,0.0,-0.01,0.0,-0.32,3.3,9.22,23
8.116391,-0.32,3.29,9.21,-0.0625,-0.0625,-0.0625,2.5625,77.0625,-15.25,0.0,-1.875,-19.6875,0.985046,0.171326,0.016785,-6.1e-05,0.0,-0.01,-0.01,-0.32,3.3,9.22,23
8.127389,-0.32,3.29,9.2,0.0625,0.3125,0.0625,2.5625,77.0625,-15.25,0.0,-1.875,-19.6875,0.985046,0.171326,0.016785,-6.1e-05,-0.01,0.0,-0.02,-0.32,3.3,9.22,23
8.138386,-0.33,3.31,9.2,-0.0625,0.3125,-0.0625,2.5625,77.0625,-15.25,0.0,-1.875,-19.6875,0.985046,0.171326,0.016785,-6.1e-05,0.0,0.0,0.01,-0.32,3.3,9.22,23
8.149384,-0.32,3.3,9.23,0.1875,0.1875,0.125,2.5625,77.0625,-15.25,0.0,-1.875,-19.6875,0.985046,0.171326,0.016785,-6.1e-05,0.0,-0.01,-0.02,-0.32,3.3,9.22,23
8.160382,-0.32,3.29,9.2,-0.0625,-0.0625,0.0625,0.75,78.5625,-10.5625,0.0,-1.875,-19.6875,0.985046,0.171326,0.016785,-6.1e-05,0.0,0.0,0.0,-0.32,3.3,9.22,23
8.17138,-0.32,3.3,9.22,-0.0625,0.125,-0.0625,0.75,78.5625,-10.5625,0.0,-1.875,-19.6875,0.985046,0.171326,0.016785,-6.1e-05,0.0,0.0,0.01,-0.32,3.3,9.22,23
8.182378,-0.33,3.3,9.23,-0.0625,0.1875,0.0,0.75,78.5625,-10.5625,0.0,-1.875,-19.6875,0.985046,0.171326,0.016785,-6.1e-05,0.0,0.0,0.0,-0.32,3.3,9.22,23
8.193375,-0.33,3.31,9.22,-0.0625,-0.1875,0.0,0.75,78.5625,-10.5625,0.0,-1.875,-19.6875,0.985046,0.171326,0.016785,-6.1e-05,-0.01,0.0,0.0,-0.32,3.3,9.22,23
8.204373,-0.33,3.31,9.22,0.0,0.0,0.0,0.75,78.5625,-10.5625,0.0,-1.875,-19.6875,0.985046,0.171326,0.016785,-6.1e-05,-0.01,0.0,0.01,-0.32,3.3,9.22,23
8.215371,-0.33,3.31,9.24,0.125,-0.125,0.0,3.375,78.1875,-12.5625,0.0,-1.875,-19.6875,0.985046,0.171326,0.016785,-6.1e-05,0.0,-0.01,-0.01,-0.32,3.3,9.22,23
8.226369,-0.33,3.3,9.21,0.0,0.1875,0.0,3.375,78.1875,-12.5625,0.0,-1.875,-19.6875,0.985046,0.171326,0.016785,-6.1e-05,0.0,0.0,0.0,-0.32,3.3,9.22,23
8.237367,-0.33,3.3,9.22,0.0625,0.0625,-0.0625,3.375,78.1875,-12.5625,0.0,-1.875,-19.6875,0.985046,0.171326,0.016785,-6.1e-05,0.0,0.0,-0.01,-0.32,3.3,9.22,23
8.248365,-0.31,3.31,9.2,0.0,0.0625,-0.125,3.375,78.1875,-12.5625,0.0,-1.875,-19.6875,0.985046,0.171326,0.016785,-6.1e-05,0.0,-0.02,0.0,-0.32,3.3,9.22,23
8.259362,-0.33,3.28,9.23,0.0625,0.1875,-0.125,3.375,78.1875,-12.5625,0.0,-1.875,-19.6875,0.985046,0.171326,0.016785,-6.1e-05,0.0,-0.02,0.0,-0.32,3.3,9.22,23
8.27036,-0.32,3.31,9.23,-0.0625,0.0625,0.0,2.25,77.75,-12.1875,0.0,-1.875,-19.6875,0.985046,0.171326,0.016785,-6.1e-05,0.0,0.0,0.0,-0.32,3.3,9.22,23
8.281358,-0.33,3.3,9.22,0.125,0.0,-0.125,2.25,77.75,-12.1875,0.0,-1.875,-19.6875,0.985046,0.171326,0.016785,-6.1e-05,0.0,0.01,-0.02,-0.32,3.3,9.22,23
8.292356,-0.32,3.32,9.2,-0.0625,0.125,0.0,2.25,77.75,-12.1875,0.0,-1.875,-19.6875,0.985046,0.171326,0.016785,-6.1e-05,0.0,0.0,0.0,-0.32,3.3,9.22,23
8.303354,-0.33,3.3,9.21,0.0,-0.3125,0.0625,2.25,77.75,-12.1875,0.0,-1.875,-19.6875,0.985046,0.171326,0.016785,-6.1e-05,0.0,0.0,0.0,-0.32,3.3,9.22,23
8.314351,-0.32,3.3,9.22,-0.0625,-0.125,-0.0625,3.375,77.375,-12.875,0.0,-1.875,-19.6875,0.985046,0.171326,0.016785,-6.1e-05,0.0,0.0,0.0,-0.32,3.3,9.22,23
8.325349,-0.32,3.31,9.22,0.0625,-0.25,-0.0625,3.375,77.375,-12.875,0.0,-1.875,-19.6875,0.985046,0.171326,0.016785,-6.1e-05,0.0,0.0,0.0,-0.32,3.3,9.22,23
8.336347,-0.32,3.31,9.22,-0.0625,0.0,-0.0625,3.375,77.375,-12.875,0.0,-1.875,-19.6875,0.985046,0.171326,0.016785,-6.1e-05,-0.02,-0.01,0.0,-0.32,3.3,9.22,23
8.347345,-0.34,3.29,9.21,0.0,0.1875,0.0,3.375,77.375,-12.875,0.0,-1.875,-19.6875,0.985046,0.171326,0.016785,-6.1e-05,-0.01,0.02,0.01,-0.32,3.3,9.22,23
8.358343,-0.33,3.33,9.23,-0.3125,-0.125,0.0625,3.375,77.375,-12.875,0.0,-1.875,-19.6875,0.985046,0.171326,0.016785,-6.1e-05,-0.01,0.02,0.01,-0.32,3.3,9.22,23
8.369341,-0.33,3.31,9.23,-0.1875,-0.0625,0.0,2.5625,77.375,-12.5625,0.0,-1.875,-19.6875,0.985046,0.171326,0.016785,-6.1e-05,0.0,0.0,0.0,-0.32,3.3,9.22,23
8.380338,-0.33,3.3,9.22,0.0625,-0.125,0.0625,2.5625,77.375,-12.5625,0.0,-1.875,-19.6875,0.985046,0.171326,0.016785,-6.1e-05,0.0,0.0,0.0,-0.32,3.3,9.22,23
8.391336,-0.32,3.3,9.23,0.0625,-0.0625,0.0625,2.5625,77.375,-12.5625,0.0,-1.875,-19.6875,0.985046,0.171326,0.016785,-6.1e-05,0.0,-0.01,0.0,-0.32,3.3,9.22,23
8.402334,-0.32,3.29,9.22,0.3125,0.0,0.0625,2.5625,77.375,-12.5625,0.0,-1.875,-19.6875,0.985046,0.171326,0.016785,-6.1e-05,-0.01,-0.01,0.02,-0.32,3.3,9.22,23
8.413332,-0.33,3.29,9.25,-0.0625,-0.0625,0.0,5.25,77.375,-14.5,0.0,-1.875,-19.6875,0.985046,0.171326,0.016785,-6.1e-05,-0.01,0.0,0.0,-0.32,3.3,9.22,23
8.42433,-0.33,3.3,9.22,0.125,0.0625,-0.0625,5.25,77.375,-14.5,0.0,-1.875,-19.6875,0.985046,0.171326,0.016785,-6.1e-05,0.0,0.01,0.01,-0.32,3.3,9.22,23
8.435327,-0.32,3.32,9.24,-0.125,-0.125,-0.125,5.25,77.375,-14.5,0.0,-1.875,-19.6875,0.985046,0.171326,0.016785,-6.1e-05,0.0,-0.02,0.0,-0.32,3.3,9.22,23
8.446325,-0.33,3.28,9.21,0.0,-0.1875,0.0,5.25,77.375,-14.5,0.0,-1.875,-19.6875,0.985046,0.171326,0.016785,-6.1e-05,0.0,0.01,0.0,-0.32,3.3,9.22,23
8.457323,-0.33,3.32,9.23,0.125,0.125,0.0625,5.25,77.375,-14.5,0.0,-1.875,-19.6875,0.985046,0.171326,0.016785,-6.1e-05,0.0,0.0,0.0,-0.32,3.3,9.22,23
8.468321,-0.33,3.3,9.21,0.125,0.0,0.125,3.75,76.25,-15.25,0.0,-1.875,-19.6875,0.985046,0.171326,0.016785,-6.1e-05,0.0,-0.01,0.0,-0.32,3.3,9.22,23
8.479319,-0.33,3.31,9.23,0.0,0.0625,-0.0625,3.75,76.25,-15.25,0.0,-1.875,-19.6875,0.985046,0.171326,0.016785,-6.1e-05,-0.01,0.0,0.0,-0.32,3.3,9.22,23
8.490317,-0.33,3.31,9.22,-0.1875,0.0,-0.0625,3.75,76.25,-15.25,0.0,-1.875,-19.6875,0.985046,0.171326,0.016785,-6.1e-05,0.0,0.0,-0.01,-0.32,3.3,9.22,23
8.501314,-0.33,3.31,9.2,0.0625,0.125,0.0,3.75,76.25,-15.25,0.0,-1.875,-19.6875,0.985046,0.171326,0.016785,-6.1e-05,0.0,0.01,0.0,-0.32,3.3,9.22,23
8.512312,-0.32,3.32,9.23,-0.1875,-0.0625,0.0,3.75,76.25,-15.25,0.0,-1.875,-19.6875,0.985046,0.171326,0.016785,-6.1e-05,0.0,0.01,0.0,-0.32,3.3,9.22,23
8.52331,-0.31,3.32,9.21,-0.3125,-0.1875,0.125,5.25,77.375,-15.6875,0.0,-1.875,-19.6875,0.985046,0.171326,0.016785,-6.1e-05,0.0,0.01,0.0,-0.32,3.3,9.22,23
8.534308,-0.32,3.32,9.22,0.0,-0.25,-0.0625,5.25,77.375,-15.6875,0.0,-1.875,-19.6875,0.985046,0.171326,0.016785,-6.1e-05,0.0,0.0,0.0,-0.32,3.3,9.22,23
8.545306,-0.32,3.31,9.23,-0.0625,0.0625,0.0625,5.25,77.375,-15.6875,0.0,-1.875,-19.6875,0.985046,0.171326,0.016785,-6.1e-05,0.0,-0.02,0.0,-0.32,3.3,9.22,23
8.556303,-0.32,3.28,9.22,-0.0625,0.0625,0.0,5.25,77.375,-15.6875,0.0,-1.875,-19.6875,0.985046,0.171326,0.016785,-6.1e-05,0.0,-0.02,0.0,-0.32,3.3,9.22,23
8.567301,-0.33,3.28,9.22,-0.125,-0.1875,-0.125,6.0,76.375,-16.0625,0.0,-1.875,-19.6875,0.985046,0.171326,0.016785,-6.1e-05,0.0,0.0,0.01,-0.32,3.3,9.22,23
8.578299,-0.33,3.32,9.22,-0.0625,-0.1875,0.0,6.0,76.375,-16.0625,0.0,-1.875,-19.6875,0.985046,0.171326,0.016785,-6.1e-05,-0.01,0.01,0.0,-0.32,3.3,9.22,23
8.589297,-0.32,3.3,9.18,-0.0625,0.125,-0.0625,6.0,76.375,-16.0625,0.0,-1.875,-19.6875,0.985046,0.171326,0.016785,-6.1e-05,0.0,0.0,-0.02,-0.32,3.3,9.22,23
8.600295,-0.33,3.3,9.2,0.0,-0.0625,-0.0625,6.0,76.375,-16.0625,0.0,-1.875,-19.6875,0.985046,0.171326,0.016785,-6.1e-05,0.0,0.0,0.0,-0.32,3.3,9.22,23
8.611293,-0.33,3.31,9.21,-0.25,-0.125,-0.125,6.0,76.375,-16.0625,0.0,-1.875,-19.6875,0.985046,0.171326,0.016785,-6.1e-05,0.0,0.0,0.0,-0.32,3.3,9.22,23
8.62229,-0.33,3.3,9.23,-0.0625,0.0,-0.0625,0.75,78.5625,-10.5625,0.0,-1.875,-19.6875,0.985046,0.171326,0.016785,-6.1e-05,0.0,0.0,0.0,-0.32,3.3,9.22,23
8.633288,-0.32,3.31,9.23,0.125,-0.0625,-0.0625,0.75,78.5625,-10.5625,0.0,-1.875,-19.6875,0.985046,0.171326,0.016785,-6.1e-05,-0.01,0.0,0.0,-0.32,3.3,9.22,23
8.644286,-0.33,3.3,9.22,-0.25,-0.0625,0.0,0.75,78.5625,-10.5625,0.0,-1.875,-19.6875,0.985046,0.171326,0.016785,-6.1e-05,0.0,0.0,0.0,-0.32,3.3,9.22,23
8.655284,-0.32,3.31,9.22,-0.0625,-0.1875,-0.0625,0.75,78.5625,-10.5625,0.0,-1.875,-19.6875,0.985046,0.171326,0.016785,-6.1e-05,-0.02,0.0,-0.01,-0.32,3.3,9.22,23
8.666282,-0.34,3.3,9.21,0.0,0.125,0.0,2.25,77.375,-11.0,0.0,-1.875,-19.6875,0.985046,0.171326,0.016785,-6.1e-05,0.0,0.0,0.0,-0.32,3.3,9.22,23
8.677279,-0.32,3.31,9.22,-0.0625,-0.1875,0.0,2.25,77.375,-11.0,0.0,-1.875,-19.6875,0.985046,0.171326,0.016785,-6.1e-05,0.0,0.01,0.0,-0.32,3.3,9.22,23
8.688277,-0.33,3.3,9.2,0.0625,-0.0625,0.0,2.25,77.375,-11.0,0.0,-1.875,-19.6875,0.985046,0.171326,0.016785,-6.1e-05,-0.01,0.0,-0.02,-0.32,3.3,9.22,23
8.699275,-0.33,3.3,9.2,0.0625,0.25,-0.0625,2.25,77.375,-11.0,0.0,-1.875,-19.6875,0.985046,0.171326,0.016785,-6.1e-05,-0.01,0.0,-0.02,-0.32,3.3,9.22,23
8.710273,-0.33,3.31,9.21,0.0625,0.0625,-0.0625,2.25,77.375,-11.0,0.0,-1.875,-19.6875,0.985046,0.171326,0.016785,-6.1e-05,0.0,0.0,0.0,-0.32,3.3,9.22,23
8.721271,-0.32,3.32,9.22,-0.0625,0.0625,0.0,2.25,77.375,-12.1875,0.0,-1.875,-19.6875,0.985046,0.171326,0.016785,-6.1e-05,-0.01,-0.01,0.0,-0.32,3.3,9.22,23
8.732269,-0.33,3.29,9.22,-0.25,0.0,-0.125,2.25,77.375,-12.1875,0.0,-1.875,-19.6875,0.985046,0.171326,0.016785,-6.1e-05,0.0,0.01,0.0,-0.32,3.3,9.22,23
8.743266,-0.32,3.32,9.22,0.0,-0.1875,0.0625,2.25,77.375,-12.1875,0.0,-1.875,-19.6875,0.985046,0.171326,0.016785,-6.1e-05,0.0,-0.01,0.0,-0.32,3.3,9.22,23
8.754264,-0.31,3.29,9.22,0.0,-0.0625,-0.125,2.25,77.375,-12.1875,0.0,-1.875,-19.6875,0.985046,0.171326,0.016785,-6.1e-05,0.0,-0.01,0.0,-0.32,3.3,9.22,23
8.765262,-0.33,3.29,9.22,-0.1875,-0.1875,-0.0625,5.5625,76.375,-15.25,0.0,-1.875,-19.6875,0.985046,0.171326,0.016785,-6.1e-05,0.0,0.0,-0.01,-0.32,3.3,9.22,23
8.77626,-0.32,3.31,9.2,0.0,0.125,0.0,5.5625,76.375,-15.25,0.0,-1.875,-19.6875,0.985046,0.171326,0.016785,-6.1e-05,0.0,0.01,0.01,-0.32,3.3,9.22,23
